<?xml version="1.0" encoding="UTF-8"?>
<!-- Product Process Validation - Biologic -->
<Bundle xmlns="http://hl7.org/fhir">
   <id value="product-batch-analysis"/>
   <meta>
      <profile value="http://accumulus.org/fhir/dx-cmc/process-validation"/>
   </meta>
   <type value="collection"/>
   <entry>
      <fullUrl value="urn:uuid:2038e4c7-22b8-4c56-2d28-6c077648763f"/>
      <resource>
         <PlanDefinition>
            <id value="validationProtocol"/>
            <extension url="http://nprogram.co.uk/fhir/extension/viewer/tabulateBatchesInRows-biologic">
               <valueBoolean value="true"/>
            </extension>
            <title value="DP PROCESS VALIDATION"/>
            <type>
               <coding>
                  <system value="http://terminology.hl7.org/CodeSystem/plan-definition-type"/>
                  <code value="workflow-definition"/>
                  <display value="Workflow Definition"/>
               </coding>
               <coding>
                  <system value="http://accumulus.org/fhir/code/planType"/>
                  <code value="process-validation"/>
                  <display value="Process Validation"/>
               </coding>
            </type>
            <status value="active"/>
            <subjectReference>
               <reference value="MedicinalProductDefinition/medicinalproductdefinition-drug-product-dxpq-ex1"/>
            </subjectReference>
            <description value="Pre-defined validation acceptance criteria were established based on manufacturing development data derived from process characterization studies..."/>
            <action>
               <title value="Formulation Buffer Preparation Process Parameter Step"/>
               <code>
                  <coding>
                     <system value="http://temp.hl7.org/fhir/us/pq-cmc/CodeSystem/manufacturing-step"/>
                     <code value="FormulationBufferPreparationProcessParameterStep"/>
                     <display value="Formulation Buffer Preparation Process Parameter Step"/>
                  </coding>
                  <text value="Formulation Buffer Preparation Process Parameter Step"/>
               </code>
               <action>
                    	<!-- this level is not really needed here, could remove. But in the case where there are different timings, it is needed, so it is here for consistency -->
                  <title value="Formulation Buffer Preparation Process Parameter Step"/>
                  <code>
                     <text value="FormulationBufferPreparationProcessParameterStep"/>
                  </code>
                  <action>
                     <code>
                        <text value="Conclusion"/>
                     </code>
                     <definitionCanonical value="ObservationDefinition/conclusion"/>
                  </action>
                  <action>
                     <code>
                        <text value="Test"/>
                     </code>
                     <definitionCanonical value="ObservationDefinition/bufferVesselMixingSpeed"/>
                  </action>
                  <action>
                     <code>
                        <text value="Test"/>
                     </code>
                     <definitionCanonical value="ObservationDefinition/bufferVesselMixingTime"/>
                  </action>
               </action>
            </action>
            <action>
               <title value="Formulation Buffer Preparation Performance Indicator Results"/>
               <code>
                  <coding>
                     <system value="http://temp.hl7.org/fhir/us/pq-cmc/CodeSystem/manufacturing-step"/>
                     <code value="FormulationBufferPreparationPerformanceIndicatorStep"/>
                     <display value="Formulation Buffer Preparation Performance Indicator Results"/>
                  </coding>
                  <!--text value="Overall set of actions"/-->
               </code>
               <action>
                  <title value="???"/>
                  <code>
                     <text value="???"/>
                  </code>
                  <action>
                     <code>
                        <text value="Test"/>
                     </code>
                     <definitionCanonical value="ObservationDefinition/FBPPIpH"/>
                  </action>
                  <action>
                     <code>
                        <text value="Test"/>
                     </code>
                     <definitionCanonical value="ObservationDefinition/Osmolality"/>
                  </action>
                  <action>
                     <code>
                        <text value="Test"/>
                     </code>
                     <definitionCanonical value="ObservationDefinition/Conductivity"/>
                  </action>
                  <action>
                     <code>
                        <text value="Test"/>
                     </code>
                     <definitionCanonical value="ObservationDefinition/Bioburden"/>
                  </action>
                  <action>
                     <code>
                        <text value="Test"/>
                     </code>
                     <definitionCanonical value="ObservationDefinition/BacterialEndotoxins"/>
                  </action>
               </action>
            </action>
            <action>
               <title value="Thawing and Formulation Process Parameter Results"/>
               <code>
                  <coding>
                     <system value="http://temp.hl7.org/fhir/us/pq-cmc/CodeSystem/manufacturing-step"/>
                     <code value="ThawingandFormulationProcessParameterResultsStep"/>
                     <display value="Thawing and Formulation Process Parameter Resultss"/>
                  </coding>
                  <!--text value="Overall set of actions"/-->
               </code>
               <action>
                  <title value="???"/>
                  <code>
                     <text value="???"/>
                  </code>
                  <action>
                     <code>
                        <text value="Test"/>
                     </code>
                     <definitionCanonical value="ObservationDefinition/ThawingTemp"/>
                  </action>
                  <action>
                     <code>
                        <text value="Test"/>
                     </code>
                     <definitionCanonical value="ObservationDefinition/ThawingTime"/>
                  </action>
                  <action>
                     <code>
                        <text value="Test"/>
                     </code>
                     <definitionCanonical value="ObservationDefinition/formulationVesselMixingSpeed"/>
                  </action>
                  <action>
                     <code>
                        <text value="Test"/>
                     </code>
                     <definitionCanonical value="ObservationDefinition/formulationVesselMixingTime"/>
                  </action>
               </action>
            </action>
            <action>
               <title value="Thawing and Formulation Performance Indicator Results"/>
               <code>
                  <coding>
                     <system value="http://temp.hl7.org/fhir/us/pq-cmc/CodeSystem/manufacturing-step"/>
                     <code value="ThawingandFormulationPerformanceIndicatorResultsStep"/>
                     <display value="Thawing and Formulation Performance Indicator Results"/>
                  </coding>
                  <!--text value="Overall set of actions"/-->
               </code>
               <action>
                  <title value="???"/>
                  <code>
                     <text value="???"/>
                  </code>
                  <action>
                     <code>
                        <text value="Test"/>
                     </code>
                     <definitionCanonical value="ObservationDefinition/ThawingFBPPIpH"/>
                  </action>
                  <action>
                     <code>
                        <text value="Test"/>
                     </code>
                     <definitionCanonical value="ObservationDefinition/ThawingOsmolality"/>
                  </action>
                  <action>
                     <code>
                        <text value="Test"/>
                     </code>
                     <definitionCanonical value="ObservationDefinition/ThawingConductivity"/>
                  </action>
                  <action>
                     <code>
                        <text value="Test"/>
                     </code>
                     <definitionCanonical value="ObservationDefinition/ThawingBacterialEndotoxins"/>
                  </action>
                  <action>
                     <code>
                        <text value="Test"/>
                     </code>
                     <definitionCanonical value="ObservationDefinition/Polysorbate"/>
                  </action>
               </action>
            </action>
            <action>
               <title value="Bioburden Reduction Filtration Process Parameter Results"/>
               <code>
                  <coding>
                     <system value="http://temp.hl7.org/fhir/us/pq-cmc/CodeSystem/manufacturing-step"/>
                     <code value="BioburdenReductionFiltrationProcessParameterResultsStep"/>
                     <display value="Bioburden Reduction Filtration Process Parameter Results"/>
                  </coding>
               </code>
               <action>
                  <code>
                     <text value="Test"/>
                  </code>
                  <definitionCanonical value="ObservationDefinition/FiltrationPressure"/>
               </action>
            </action>
            <action>
               <title value="Bioburden Reduction Filtration Performance Indicator Results"/>
               <code>
                  <coding>
                     <system value="http://temp.hl7.org/fhir/us/pq-cmc/CodeSystem/manufacturing-step"/>
                     <code value="BioburdenReductionFiltrationPerformanceIndicatorResultsStep"/>
                     <display value=" Bioburden Reduction Filtration Performance Indicator Results"/>
                  </coding>
               </code>
               <action>
                  <code>
                     <text value="Test"/>
                  </code>
                  <definitionCanonical value="ObservationDefinition/PreFiltrationBioburden"/>
               </action>
               <action>
                  <code>
                     <text value="Test"/>
                  </code>
                  <definitionCanonical value="ObservationDefinition/PostFiltrationFilterIntegrity"/>
               </action>
            </action>
            <action>
               <title value="Media Challenge Hold Times"/>
               <code>
                  <coding>
                     <system value="http://temp.hl7.org/fhir/us/pq-cmc/CodeSystem/manufacturing-step"/>
                     <code value="MediaChallengeHoldTimesStep"/>
                     <display value="Media Challenge Hold Times"/>
                  </coding>
               </code>
               <action>
                  <code>
                     <text value="Test"/>
                  </code>
                  <definitionCanonical value="ObservationDefinition/MediaHoldTime"/>
               </action>
            </action>
            <action>
               <title value="Media Challenge Results"/>
               <code>
                  <coding>
                     <system value="http://temp.hl7.org/fhir/us/pq-cmc/CodeSystem/manufacturing-step"/>
                     <code value="MediaChallengeResultsStep"/>
                     <display value="Media Challenge Results"/>
                  </coding>
               </code>
               <action>
                  <code>
                     <text value="Test"/>
                  </code>
                  <definitionCanonical value="ObservationDefinition/MediaBioburden"/>
               </action>
               <action>
                  <code>
                     <text value="Test"/>
                  </code>
                  <definitionCanonical value="ObservationDefinition/GrowthPromotion"/>
               </action>
            </action>
            <action>
               <title value="Filtered Formulated Drug Product Performance Indicator Results"/>
               <code>
                  <coding>
                     <system value="http://temp.hl7.org/fhir/us/pq-cmc/CodeSystem/manufacturing-step"/>
                     <code value="FilteredFormulatedDrugProductPerformanceIndicatorResultsStep"/>
                     <display value="Filtered Formulated Drug Product Performance Indicator Results"/>
                  </coding>
               </code>
               <action>
                  <code>
                     <text value="Test"/>
                  </code>
                  <definitionCanonical value="ObservationDefinition/SE-UHPLCMainPeak"/>
               </action>
               <action>
                  <code>
                     <text value="Test"/>
                  </code>
                  <definitionCanonical value="ObservationDefinition/SE-UHPLCHMW"/>
               </action>
            </action>
            <action>
               <title value="Fill Weight Summary"/>
               <code>
                  <coding>
                     <system value="http://temp.hl7.org/fhir/us/pq-cmc/CodeSystem/manufacturing-step"/>
                     <code value="FillWeightSummaryStep"/>
                     <display value="Fill Weight Summary"/>
                  </coding>
               </code>
               <action>
                  <code>
                     <text value="Test"/>
                  </code>
                  <definitionCanonical value="ObservationDefinition/FillWeight"/>
               </action>
            </action>
            <action>
               <title value="Filling Homogeneity Quality Attributes"/>
               <code>
                  <coding>
                     <system value="http://temp.hl7.org/fhir/us/pq-cmc/CodeSystem/manufacturing-step"/>
                     <code value="FillingHomogeneityQualityAttributesStep"/>
                     <display value="Filling Homogeneity Quality Attributes"/>
                  </coding>
                  <text value="Filling Homogeneity Quality Attributes"/>
               </code>
               <action>
                  <code>
                     <text value="Conclusion"/>
                  </code>
                  <definitionCanonical value="ObservationDefinition/conclusionHomogeneity"/>
               </action>
               <!-- no tests just a conclusion -->
            </action>
            <action>
               <title value="Filling Results Summary"/>
               <code>
                  <coding>
                     <system value="http://temp.hl7.org/fhir/us/pq-cmc/CodeSystem/manufacturing-step"/>
                     <code value="FillingResultsSummaryStep"/>
                     <display value="Filling Results Summary"/>
                  </coding>
               </code>
               <action>
                  <code>
                     <text value="Test"/>
                  </code>
                  <definitionCanonical value="ObservationDefinition/ProteinConcentration"/>
               </action>
               <action>
                  <code>
                     <text value="Test"/>
                  </code>
                  <definitionCanonical value="ObservationDefinition/Polysorbate80Concentration"/>
               </action>
            </action>
            <action>
               <title value="Statistical Evaluation of Homogeneity Data"/>
               <code>
                  <coding>
                     <system value="http://temp.hl7.org/fhir/us/pq-cmc/CodeSystem/manufacturing-step"/>
                     <code value="StatisticalEvaluationOfHomogeneityDataStep"/>
                     <display value="Statistical Evaluation of Homogeneity Data"/>
                  </coding>
               </code>
               <action>
                  <code>
                     <text value="Test"/>
                  </code>
                  <definitionCanonical value="ObservationDefinition/ProteinConcentrationStats"/>
               </action>
               <action>
                  <code>
                     <text value="Test"/>
                  </code>
                  <definitionCanonical value="ObservationDefinition/Polysorbate80Concentration"/>
               </action>
            </action>
            <action>
               <title value="Consistency of the Lyophilization Process"/>
               <code>
                  <coding>
                     <system value="http://temp.hl7.org/fhir/us/pq-cmc/CodeSystem/manufacturing-step"/>
                     <code value="ConsistencyoftheLyophilizationProcessStep"/>
                     <display value="Consistency of the Lyophilization Process"/>
                  </coding>
               </code>
               <action>
                  <code>
                     <text value="Test"/>
                  </code>
                  <definitionCanonical value="ObservationDefinition/ResidualMoisture"/>
               </action>
               <action>
                  <code>
                     <text value="Definition"/>
                  </code>
                  <definitionCanonical value="ActivityDefinition/LyophilizationAct"/>
               </action>
            </action>
            <action>
               <title value="Lyophilization Homogeneity"/>
               <code>
                  <coding>
                     <system value="http://temp.hl7.org/fhir/us/pq-cmc/CodeSystem/manufacturing-step"/>
                     <code value="LyophilizationHomogeneityStep"/>
                     <display value="Lyophilization Homogeneity Results"/>
                  </coding>
               </code>
               <action>
                  <code>
                     <text value="Test"/>
                  </code>
                  <definitionCanonical value="ObservationDefinition/SE-UHPLCMainPeakLyoph"/>
                  <!-- there are 2 types of obs that correspond to this. Ones per batch, with a %, and ones that are not per batch and have a conclusion (and a number of samples)-->
               </action>
               <action>
                  <code>
                     <text value="Test"/>
                  </code>
                  <definitionCanonical value="ObservationDefinition/SE-UHPLCHMWLyoph"/>
                  <!-- there are 2 types of obs that correspond to this. Ones per batch, with a %, and ones that are not per batch and have a conclusion (and a number of samples)-->
               </action>
            </action>
         </PlanDefinition>
      </resource>
   </entry>
   <!-- ActDef that acts as something a Procedure can be done for (could be contained) -->
   <entry>
      <fullUrl value="urn:uuid:b664977d-799d-a1ce-928a-6def2a9955bd"/>
      <resource>
         <ActivityDefinition>
            <id value="LyophilizationAct"/>
            <title value="Lyophilization"/>
            <status value="active"/>
         </ActivityDefinition>
      </resource>
   </entry>
   <!-- Diagnostic report doesn't carry much extra value but does collect all the observations -->
   <entry>
      <fullUrl value="urn:uuid:b664977d-799d-a1ce-928a-5def2a9955bd"/>
      <resource>
         <DiagnosticReport>
                <!-- ideally this wants a subject, but it can only be a Medication (batch) and we have multiple. 
                     however the observations themselves do have subjects -->
            <id value="processValidationReport"/>
            <extension url="http://hl7.org/fhir/StructureDefinition/workflow-triggeredBy">
               <valueReference>
                  <reference value="PlanDefinition/validationProtocol"/>
               </valueReference>
            </extension>
            <status value="final"/>
            <code>
               <coding>
                  <system value="http://accumulus.org/fhir/code/reportType"/>
                  <code value="1113"/>
                  <display value="Process Validation Report"/>
               </coding>
            </code>
            <effectiveDateTime value="2020-12"/>
            <result>
               <reference value="Observation/bufferVesselMixingSpeed1"/>
            </result>
            <result>
               <reference value="Observation/bufferVesselMixingSpeed2"/>
            </result>
            <result>
               <reference value="Observation/bufferVesselMixingSpeed3"/>
            </result>
            <result>
               <reference value="Observation/bufferVesselMixingTime1"/>
            </result>
            <result>
               <reference value="Observation/bufferVesselMixingTime2"/>
            </result>
            <result>
               <reference value="Observation/bufferVesselMixingTime3"/>
            </result>
            <result>
               <reference value="Observation/ph1"/>
            </result>
            <result>
               <reference value="Observation/ph2"/>
            </result>
            <result>
               <reference value="Observation/ph3"/>
            </result>
            <result>
               <reference value="Observation/osmolality1"/>
            </result>
            <result>
               <reference value="Observation/osmolality2"/>
            </result>
            <result>
               <reference value="Observation/osmolality3"/>
            </result>
            <result>
               <reference value="Observation/postFiltrationFilterIntegrity1"/>
            </result>
            <result>
               <reference value="Observation/mediaChallengeHoldTimesStep1"/>
            </result>
            <result>
               <reference value="Observation/mediaChallengeHoldTimesStep2"/>
            </result>
            <result>
               <reference value="Observation/mediaChallengeHoldTimesStep3"/>
            </result>
            <result>
               <reference value="Observation/mediaChallengeBioburden1"/>
            </result>
            <result>
               <reference value="Observation/mediaChallengeBioburden2"/>
            </result>
            <result>
               <reference value="Observation/mediaChallengeBioburden3"/>
            </result>
            <result>
               <reference value="Observation/growthPromotion1"/>
            </result>
            <result>
               <reference value="Observation/growthPromotion2"/>
            </result>
            <result>
               <reference value="Observation/growthPromotion3"/>
            </result>
            <result>
               <reference value="Observation/SE-UHPLCMainPeak1"/>
            </result>
            <result>
               <reference value="Observation/SE-UHPLCMainPeak2"/>
            </result>
            <result>
               <reference value="Observation/SE-UHPLCMainPeak3"/>
            </result>
            <result>
               <reference value="Observation/SE-UHPLCHMW1"/>
            </result>
            <result>
               <reference value="Observation/SE-UHPLCHMW2"/>
            </result>
            <result>
               <reference value="Observation/SE-UHPLCHMW3"/>
            </result>
            <result>
               <reference value="Observation/protein1-2"/>
            </result>
            <result>
               <reference value="Observation/protein1-4"/>
            </result>
            <result>
               <reference value="Observation/protein1-6"/>
            </result>
            <result>
               <reference value="Observation/protein1-8"/>
            </result>
            <result>
               <reference value="Observation/protein1-10"/>
            </result>
            <result>
               <reference value="Observation/protein2-2"/>
            </result>
            <result>
               <reference value="Observation/protein2-4"/>
            </result>
            <result>
               <reference value="Observation/fillWeight1"/>
            </result>
            <result>
               <reference value="Observation/fillingHomogeneityConclusion-nosubject"/>
            </result>
            <result>
               <reference value="Observation/proteinConcentration1"/>
            </result>
            <!--result><reference value="Observation/proteinConcentration2"/></result>
            	<result><reference value="Observation/proteinConcentration3"/></result-->
            <result>
               <reference value="Observation/polysorbate2"/>
            </result>
            <result>
               <reference value="Observation/proteinConcentrationStats1"/>
            </result>
            <result>
               <reference value="Observation/residualMoisture1"/>
            </result>
            <result>
               <reference value="Observation/residualMoisture2"/>
            </result>
            <result>
               <reference value="Observation/residualMoisture3"/>
            </result>
            <result>
               <reference value="Observation/SE-UHPLCMainPeakLyoph1"/>
            </result>
            <result>
               <reference value="Observation/SE-UHPLCMainPeakLyoph2"/>
            </result>
            <result>
               <reference value="Observation/SE-UHPLCMainPeakLyoph3"/>
            </result>
            <result>
               <reference value="Observation/SE-UHPLCMainPeakLyophConclusionObs"/>
            </result>
            <result>
               <reference value="Observation/SE-UHPLCHMWLyoph1"/>
            </result>
            <result>
               <reference value="Observation/SE-UHPLCHMWLyoph2"/>
            </result>
            <result>
               <reference value="Observation/SE-UHPLCHMWLyoph3"/>
            </result>
            <result>
               <reference value="Observation/SE-UHPLCHMWLyophConclusionObs"/>
            </result>
            <conclusion value="The samples have been assessed and the conclusion is..."/>
         </DiagnosticReport>
      </resource>
   </entry>
   <entry>
      <fullUrl value="urn:uuid:fd17b5d6-9fe1-91c2-2d06-47cb5b295e72"/>
      <resource>
         <ObservationDefinition>
            <id value="bufferVesselMixingSpeed"/>
            <title value="Buffer vessel mixing speed (rpm)"/>
            <status value="active"/>
            <code>
               <coding>
                  <system value="http://dummy.loinc.org"/>
                  <code value="XXX"/>
                  <display value="Buffer vessel mixing speed (rpm)"/>
               </coding>
               <text value="Buffer vessel mixing speed (rpm)"/>
            </code>
            <qualifiedValue>
               <range>
                  <low>
                     <value value="150"/>
                     <unit value="rpm"/>
                  </low>
                  <high>
                     <value value="250"/>
                     <unit value="rpm"/>
                  </high>
               </range>
            </qualifiedValue>
         </ObservationDefinition>
      </resource>
   </entry>
   <entry>
      <fullUrl value="urn:uuid:fc17b5d5-9fe1-91c2-2d06-47cb5b295e72"/>
      <resource>
         <ObservationDefinition>
            <id value="formulationVesselMixingSpeed"/>
            <title value="Formulation vessel mixing speed (rpm)"/>
            <status value="active"/>
            <code>
               <coding>
                  <system value="http://dummy.loinc.org"/>
                  <code value="XXX"/>
                  <display value="Formulation vessel mixing speed (rpm)"/>
               </coding>
               <text value="Formulation vessel mixing speed (rpm)"/>
            </code>
            <qualifiedValue>
               <range>
                  <low>
                     <value value="150"/>
                     <unit value="rpm"/>
                  </low>
                  <high>
                     <value value="250"/>
                     <unit value="rpm"/>
                  </high>
               </range>
            </qualifiedValue>
         </ObservationDefinition>
      </resource>
   </entry>
   <entry>
      <fullUrl value="urn:uuid:fc17b5d5-9fe1-91c2-2d06-47cb5b295e73"/>
      <resource>
         <ObservationDefinition>
            <id value="bufferVesselMixingTime"/>
            <title value="Buffer vessel mixing time (min)"/>
            <status value="active"/>
            <code>
               <coding>
                  <system value="http://dummy.loinc.org"/>
                  <code value="XXX"/>
                  <display value="Buffer vessel mixing time (min)"/>
               </coding>
               <text value="Buffer vessel mixing time (min)"/>
            </code>
            <qualifiedValue>
               <range>
                  <low>
                     <value value="45"/>
                     <unit value="mins"/>
                     <system value="http://unitsofmeasure.org"/>
                     <code value="min"/>
                  </low>
                  <high>
                     <value value="55"/>
                     <unit value="mins"/>
                     <system value="http://unitsofmeasure.org"/>
                     <code value="min"/>
                  </high>
               </range>
            </qualifiedValue>
         </ObservationDefinition>
      </resource>
   </entry>
   <entry>
      <fullUrl value="urn:uuid:fc27b5d5-9fe1-92c2-2d06-47cb5b295e73"/>
      <resource>
         <ObservationDefinition>
            <id value="formulationVesselMixingTime"/>
            <title value="Formulation vessel mixing time (min)"/>
            <status value="active"/>
            <code>
               <coding>
                  <system value="http://dummy.loinc.org"/>
                  <code value="XXX"/>
                  <display value="Formulation vessel mixing time (min)"/>
               </coding>
               <text value="Formulation vessel mixing time (min)"/>
            </code>
            <qualifiedValue>
               <range>
                  <low>
                     <value value="45"/>
                     <unit value="mins"/>
                     <system value="http://unitsofmeasure.org"/>
                     <code value="min"/>
                  </low>
                  <high>
                     <value value="55"/>
                     <unit value="mins"/>
                     <system value="http://unitsofmeasure.org"/>
                     <code value="min"/>
                  </high>
               </range>
            </qualifiedValue>
         </ObservationDefinition>
      </resource>
   </entry>
   <entry>
      <fullUrl value="urn:uuid:fc27b6d6-9fe2-91c2-2d16-47cb5b295e72"/>
      <resource>
         <ObservationDefinition>
            <id value="ResidualMoisture"/>
            <title value="Residual Moisture (%)"/>
            <status value="active"/>
            <code>
               <coding>
                  <system value="http://dummy.loinc.org"/>
                  <code value="XXX"/>
                  <display value="Residual Moisture"/>
               </coding>
               <text value="ResidualMoisture"/>
            </code>
            <qualifiedValue>
               <range>
                  <high>
                     <value value="7.15"/>
                     <unit value="%"/>
                     <system value="http://unitsofmeasure.org"/>
                     <code value="%"/>
                  </high>
               </range>
            </qualifiedValue>
            <component>
               <code>
                  <coding>
                     <system value="http://dummy.loinc.org"/>
                     <code value="XXX"/>
                     <display value="Residual Moisture - Min"/>
                  </coding>
               </code>
            </component>
            <component>
               <code>
                  <coding>
                     <system value="http://dummy.loinc.org"/>
                     <code value="XXX"/>
                     <display value="Residual Moisture - Max"/>
                  </coding>
               </code>
            </component>
            <component> <!-- are expected to have a component that says number of samples -->
               <code>
                  <coding>
                     <system value="http://dummy.loinc.org"/>
                     <code value="SAMP"/>
                     <display value="Number of Samples"/>
                  </coding>
               </code>
            </component>
         </ObservationDefinition>
      </resource>
   </entry>
   <entry>
      <fullUrl value="urn:uuid:fc27b5d6-9fe1-91c2-2d16-47cb5b295e72"/>
      <resource>
         <ObservationDefinition>
            <id value="ThawingFBPPIpH"/>
            <title value="pH"/>
            <status value="active"/>
            <code>
               <coding>
                  <system value="http://dummy.loinc.org"/>
                  <code value="XXX"/>
                  <display value="pH"/>
               </coding>
               <text value="pH"/>
            </code>
            <qualifiedValue>
               <range>
                  <low>
                     <value value="6.55"/>
                     <unit value="pH"/>
                     <system value="http://unitsofmeasure.org"/>
                     <code value="pH"/>
                  </low>
                  <high>
                     <value value="7.15"/>
                     <unit value="pH"/>
                     <system value="http://unitsofmeasure.org"/>
                     <code value="pH"/>
                  </high>
               </range>
            </qualifiedValue>
         </ObservationDefinition>
      </resource>
   </entry>
   <entry>
      <fullUrl value="urn:uuid:fc27b5d6-9fe2-91c2-2d16-47cb5b295e72"/>
      <resource>
         <ObservationDefinition>
            <id value="ThawingTime"/>
            <title value="Thaw Time"/>
            <status value="active"/>
            <code>
               <coding>
                  <system value="http://dummy.loinc.org"/>
                  <code value="XXX"/>
                  <display value="Thaw Time"/>
               </coding>
               <text value="Thaw Time (hr)"/>
            </code>
            <qualifiedValue>
               <range>
                  <high>
                     <value value="3"/>
                     <unit value="hour"/>
                     <system value="http://unitsofmeasure.org"/>
                     <code value="h"/>
                  </high>
               </range>
            </qualifiedValue>
         </ObservationDefinition>
      </resource>
   </entry>
   <entry>
      <fullUrl value="urn:uuid:fc17b5d6-9fe1-91c2-2d16-47cb5b295e72"/>
      <resource>
         <ObservationDefinition>
            <id value="FBPPIpH"/>
            <title value="pH"/>
            <status value="active"/>
            <code>
               <coding>
                  <system value="http://dummy.loinc.org"/>
                  <code value="XXX"/>
                  <display value="pH"/>
               </coding>
               <text value="pH"/>
            </code>
            <qualifiedValue>
               <range>
                  <low>
                     <value value="6.95"/>
                     <unit value="pH"/>
                     <system value="http://unitsofmeasure.org"/>
                     <code value="pH"/>
                  </low>
                  <high>
                     <value value="7.05"/>
                     <unit value="pH"/>
                     <system value="http://unitsofmeasure.org"/>
                     <code value="pH"/>
                  </high>
               </range>
            </qualifiedValue>
         </ObservationDefinition>
      </resource>
   </entry>
   <entry>
      <fullUrl value="urn:uuid:64525a3c-5034-448a-9c19-938ce1958424"/>
      <resource>
         <ObservationDefinition>
            <id value="Osmolality"/>
            <title value="Osmolality"/>
            <status value="active"/>
            <code>
               <coding>
                  <system value="http://dummy.loinc.org"/>
                  <code value="XXX"/>
                  <display value="Osmolality"/>
               </coding>
               <text value="Osmolality (mOsm/kg)"/>
            </code>
            <qualifiedValue>
               <range>
                  <low>
                     <value value="250"/>
                     <unit value="mOsm/kg"/>
                     <!-- todo UCUM -->
                  </low>
                  <high>
                     <value value="300"/>
                     <unit value="mOsm/kg"/>
                     <!-- todo UCUM -->
                  </high>
               </range>
            </qualifiedValue>
         </ObservationDefinition>
      </resource>
   </entry>
   <entry>
      <fullUrl value="urn:uuid:64525a3d-5134-448a-9c19-938ce1958424"/>
      <resource>
         <ObservationDefinition>
            <id value="SE-UHPLCMainPeakLyoph"/>
            <title value="SE-UHPLC Main Peak"/>
            <status value="active"/>
            <code>
               <coding>
                  <system value="http://dummy.loinc.org"/>
                  <code value="XXX"/>
                  <display value="SE-UHPLC Main Peak"/>
               </coding>
               <text value="SE-UHPLC Main Peak (%)"/>
            </code>
            <qualifiedValue>
               <extension url="http://accumulus.org/fhir/extension/qualifiedValueDisplay">
                  <valueString value="± 5% target"/>
               </extension>
               <range>
                  <low>
                     <value value="85"/>
                     <unit value="%"/>
                     <!-- todo UCUM -->
                  </low>
                  <high>
                     <value value="95"/>
                     <unit value="%"/>
                     <!-- todo UCUM -->
                  </high>
               </range>
            </qualifiedValue>
            <component>
               <code>
                  <coding>
                     <system value="http://dummy.loinc.org"/>
                     <code value="XXX"/>
                     <display value="SE-UHPLC Main Peak - Conclusion"/>
                  </coding>
               </code>
               <qualifiedValue>
                  <extension url="http://accumulus.org/fhir/extension/qualifiedValueText">
                     <valueString value="Pass"/>
                  </extension>
               </qualifiedValue>
            </component>
            <component>
               <code>
                  <coding>
                     <system value="http://dummy.loinc.org"/>
                     <code value="OVERALLSAMP"/>
                     <display value="Number of Samples"/>
                  </coding>
               </code>
            </component>
         </ObservationDefinition>
      </resource>
   </entry>
   <entry>
      <fullUrl value="urn:uuid:64525a3d-5144-448a-9c19-938ce1958424"/>
      <resource>
         <ObservationDefinition>
            <id value="SE-UHPLCHMWLyoph"/>
            <title value="SE-UHPLC HMW"/>
            <status value="active"/>
            <code>
               <coding>
                  <system value="http://dummy.loinc.org"/>
                  <code value="XXX"/>
                  <display value="SE-UHPLC HMW"/>
               </coding>
               <text value="SE-UHPLC HMW (%)"/>
            </code>
            <qualifiedValue>
               <extension url="http://accumulus.org/fhir/extension/qualifiedValueDisplay">
                  <valueString value="± 2% target"/>
               </extension>
               <range>
                  <low>
                     <value value="88"/>
                     <unit value="%"/>
                     <!-- todo UCUM -->
                  </low>
                  <high>
                     <value value="92"/>
                     <unit value="%"/>
                     <!-- todo UCUM -->
                  </high>
               </range>
            </qualifiedValue>
            <component>
               <code>
                  <coding>
                     <system value="http://dummy.loinc.org"/>
                     <code value="XXX"/>
                     <display value="SE-UHPLC HMW - Conclusion"/>
                  </coding>
               </code>
               <qualifiedValue>
                  <extension url="http://accumulus.org/fhir/extension/qualifiedValueText">
                     <valueString value="Pass"/>
                  </extension>
               </qualifiedValue>
            </component>
            <component>
               <code>
                  <coding>
                     <system value="http://dummy.loinc.org"/>
                     <code value="OVERALLSAMP"/>
                     <display value="Number of Samples"/>
                  </coding>
               </code>
            </component>
         </ObservationDefinition>
      </resource>
   </entry>
   <entry>
      <fullUrl value="urn:uuid:64525a3d-5034-448a-9c19-938ce1958424"/>
      <resource>
         <ObservationDefinition>
            <id value="SE-UHPLCMainPeak"/>
            <title value="SE-UHPLC Main Peak"/>
            <status value="active"/>
            <code>
               <coding>
                  <system value="http://dummy.loinc.org"/>
                  <code value="XXX"/>
                  <display value="SE-UHPLC Main Peak"/>
               </coding>
               <text value="SE-UHPLC Main Peak (%)"/>
            </code>
            <qualifiedValue>
               <range>
                  <low>
                     <value value="5"/>
                     <unit value="%"/>
                     <!-- todo UCUM -->
                  </low>
               </range>
            </qualifiedValue>
         </ObservationDefinition>
      </resource>
   </entry>
   <entry>
      <fullUrl value="urn:uuid:64525a33-5034-448a-9c19-938ce1958424"/>
      <resource>
         <ObservationDefinition>
            <id value="SE-UHPLCHMW"/>
            <title value="SE-UHPLC HMW"/>
            <status value="active"/>
            <code>
               <coding>
                  <system value="http://dummy.loinc.org"/>
                  <code value="XXX"/>
                  <display value="SE-UHPLC HMW"/>
               </coding>
               <text value="SE-UHPLC HMW (%)"/>
            </code>
            <qualifiedValue>
               <range>
                  <low>
                     <value value="7"/>
                     <unit value="%"/>
                     <!-- todo UCUM -->
                  </low>
               </range>
            </qualifiedValue>
         </ObservationDefinition>
      </resource>
   </entry>
   <entry>
      <fullUrl value="urn:uuid:74525a33-5034-448a-9c19-938ce1958424"/>
      <resource>
         <ObservationDefinition>
            <id value="Protein"/>
            <title value="Protein Concentration (mg/ml)"/>
            <status value="active"/>
            <code>
               <coding>
                  <system value="http://dummy.loinc.org"/>
                  <code value="XXX"/>
                  <display value="Protein Concentration"/>
               </coding>
               <text value="Protein Concentration (mg/ml)"/>
            </code>
            <qualifiedValue>
               <range>
                  <low>
                     <value value="10"/>
                     <unit value="mg/ml"/>
                     <!-- todo UCUM -->
                  </low>
                  <high>
                     <value value="20"/>
                     <unit value="%"/>
                     <!-- todo UCUM -->
                  </high>
               </range>
            </qualifiedValue>
         </ObservationDefinition>
      </resource>
   </entry>
   <entry>
      <fullUrl value="urn:uuid:22515a3c-5034-448a-9c19-938ce1958424"/>
      <resource>
         <ObservationDefinition>
            <id value="conclusion"/>
            <title value="Conclusion"/>
            <status value="active"/>
            <code>
               <coding>
                  <system value="http://dummy.loinc.org"/>
                  <code value="XXX"/>
                  <display value="Conclusion"/>
               </coding>
               <text value="Conclusion"/>
            </code>
         </ObservationDefinition>
      </resource>
   </entry>
   <entry>
      <fullUrl value="urn:uuid:22525a3c-5035-448a-9c19-938ce1958424"/>
      <resource>
         <ObservationDefinition>
            <id value="conclusionHomogeneity"/>
            <title value="Conclusion"/>
            <status value="active"/>
            <code>
               <coding>
                  <system value="http://dummy.loinc.org"/>
                  <code value="XXX"/>
                  <display value="Conclusion"/>
               </coding>
               <text value="Conclusion"/>
            </code>
         </ObservationDefinition>
      </resource>
   </entry>
   <entry>
      <fullUrl value="urn:uuid:64515a3c-5034-448a-9c19-938ce1958424"/>
      <resource>
         <ObservationDefinition>
            <id value="ThawingOsmolality"/>
            <title value="Osmolality"/>
            <status value="active"/>
            <code>
               <coding>
                  <system value="http://dummy.loinc.org"/>
                  <code value="XXX"/>
                  <display value="Osmolality"/>
               </coding>
               <text value="Osmolality (mOsm/kg)"/>
            </code>
            <qualifiedValue>
               <range>
                  <low>
                     <value value="240"/>
                     <unit value="mOsm/kg"/>
                     <!-- todo UCUM -->
                  </low>
                  <high>
                     <value value="310"/>
                     <unit value="mOsm/kg"/>
                     <!-- todo UCUM -->
                  </high>
               </range>
            </qualifiedValue>
         </ObservationDefinition>
      </resource>
   </entry>
   <entry>
      <fullUrl value="urn:uuid:74515a3c-5034-448a-9c19-938ce1958424"/>
      <resource>
         <ObservationDefinition>
            <id value="ThawingTemp"/>
            <title value="Thawing Temp"/>
            <status value="active"/>
            <code>
               <coding>
                  <system value="http://dummy.loinc.org"/>
                  <code value="XXX"/>
                  <display value="Thawing Temp"/>
               </coding>
               <text value="Thawing Temp (°C)"/>
            </code>
            <qualifiedValue>
               <range>
                  <low>
                     <value value="20"/>
                     <unit value="°C"/>
                     <!-- todo UCUM -->
                  </low>
                  <high>
                     <value value="24"/>
                     <unit value="°C"/>
                     <!-- todo UCUM -->
                  </high>
               </range>
            </qualifiedValue>
         </ObservationDefinition>
      </resource>
   </entry>
   <entry>
      <fullUrl value="urn:uuid:64515a3c-5134-448a-9c19-939ce1958424"/>
      <resource>
         <ObservationDefinition>
            <id value="Conductivity"/>
            <title value="Conductivity"/>
            <status value="active"/>
            <code>
               <coding>
                  <system value="http://dummy.loinc.org"/>
                  <code value="XXX"/>
                  <display value="Conductivity (μS/cm)"/>
               </coding>
            </code>
            <qualifiedValue>
               <range>
                  <low>
                     <value value="150"/>
                     <unit value="μS/cm"/>
                     <!-- todo UCUM -->
                  </low>
                  <high>
                     <value value="200"/>
                     <unit value="μS/cm"/>
                     <!-- todo UCUM -->
                  </high>
               </range>
            </qualifiedValue>
         </ObservationDefinition>
      </resource>
   </entry>
   <entry>
      <fullUrl value="urn:uuid:74515a3c-5134-448a-9c19-939ce1958424"/>
      <resource>
         <ObservationDefinition>
            <id value="ThawingConductivity"/>
            <title value="Conductivity"/>
            <status value="active"/>
            <code>
               <coding>
                  <system value="http://dummy.loinc.org"/>
                  <code value="XXX"/>
                  <display value="Conductivity (μS/cm)"/>
               </coding>
            </code>
            <qualifiedValue>
               <range>
                  <low>
                     <value value="150"/>
                     <unit value="μS/cm"/>
                     <!-- todo UCUM -->
                  </low>
                  <high>
                     <value value="200"/>
                     <unit value="μS/cm"/>
                     <!-- todo UCUM -->
                  </high>
               </range>
            </qualifiedValue>
         </ObservationDefinition>
      </resource>
   </entry>
   <entry>
      <fullUrl value="urn:uuid:64515b3c-5134-448a-9c19-939ce1958424"/>
      <resource>
         <ObservationDefinition>
            <id value="Bioburden"/>
            <title value="Bioburden"/>
            <status value="active"/>
            <code>
               <coding>
                  <system value="http://dummy.loinc.org"/>
                  <code value="XXX"/>
                  <display value="Bioburden (CFU/ 100 mL)"/>
               </coding>
            </code>
            <qualifiedValue>
               <range>
                  <low>
                     <value value="50"/>
                     <unit value="CFU/ 100 mL"/>
                     <!-- todo UCUM -->
                  </low>
                  <high>
                     <value value="150"/>
                     <unit value="CFU/ 100 mL"/>
                     <!-- todo UCUM -->
                  </high>
               </range>
            </qualifiedValue>
         </ObservationDefinition>
      </resource>
   </entry>
   <entry>
      <fullUrl value="urn:uuid:64515b3c-5134-448a-9c19-939ce1958524"/>
      <resource>
         <ObservationDefinition>
            <id value="MediaBioburden"/>
            <title value="Bioburden"/>
            <status value="active"/>
            <code>
               <coding>
                  <system value="http://dummy.loinc.org"/>
                  <code value="XXX"/>
                  <display value="Bioburden (CFU/ 100 mL)"/>
               </coding>
            </code>
            <qualifiedValue>
               <range>
                  <high>
                     <value value="10"/>
                     <unit value="CFU/100 mL"/>
                     <!-- todo UCUM -->
                  </high>
               </range>
            </qualifiedValue>
            <component>
               <code>
                  <coding>
                     <system value="http://dummy.loinc.org"/>
                     <code value="XXX"/>
                     <display value="Bioburden - Beginning"/>
                  </coding>
               </code>
            </component>
            <component>
               <code>
                  <coding>
                     <system value="http://dummy.loinc.org"/>
                     <code value="XXX"/>
                     <display value="Bioburden - End"/>
                  </coding>
               </code>
            </component>
         </ObservationDefinition>
      </resource>
   </entry>
   <entry>
      <fullUrl value="urn:uuid:74515b3c-5234-448a-9c19-939ce1958524"/>
      <resource>
         <ObservationDefinition>
            <id value="Polysorbate80Concentration"/>
            <title value="Polysorbate 80 Concentration"/>
            <status value="active"/>
            <code>
               <coding>
                  <system value="http://dummy.loinc.org"/>
                  <code value="XXX"/>
                  <display value="Polysorbate 80 concentration - Middle - Max"/>
               </coding>
            </code>
            <qualifiedValue>
               <range>
                  <low>
                     <value value="0.5"/>
                     <unit value="% w/v"/>
                     <!-- todo UCUM -->
                  </low>
                  <high>
                     <value value="1.5"/>
                     <unit value="% w/v"/>
                     <!-- todo UCUM -->
                  </high>
               </range>
            </qualifiedValue>
            <component>
               <code>
                  <coding>
                     <system value="http://dummy.loinc.org"/>
                     <code value="XXX"/>
                     <display value="Polysorbate 80 concentration - Beginning - Min"/>
                  </coding>
               </code>
            </component>
            <component>
               <code>
                  <coding>
                     <system value="http://dummy.loinc.org"/>
                     <code value="XXX"/>
                     <display value="Polysorbate 80 concentration - Beginning - Max"/>
                  </coding>
               </code>
            </component>
            <component>
               <code>
                  <coding>
                     <system value="http://dummy.loinc.org"/>
                     <code value="XXX"/>
                     <display value="Polysorbate 80 concentration - Middle - Min"/>
                  </coding>
               </code>
            </component>
            <component>
               <code>
                  <coding>
                     <system value="http://dummy.loinc.org"/>
                     <code value="XXX"/>
                     <display value="Polysorbate 80 concentration - Middle - Max"/>
                  </coding>
               </code>
            </component>
            <component>
               <code>
                  <coding>
                     <system value="http://dummy.loinc.org"/>
                     <code value="XXX"/>
                     <display value="Polysorbate 80 concentration - End - Min"/>
                  </coding>
               </code>
            </component>
            <component>
               <code>
                  <coding>
                     <system value="http://dummy.loinc.org"/>
                     <code value="XXX"/>
                     <display value="Polysorbate 80 concentration - End - Max"/>
                  </coding>
               </code>
            </component>
         </ObservationDefinition>
      </resource>
   </entry>
   <entry>
      <fullUrl value="urn:uuid:74515b3c-5134-448a-9c19-939ce1958524"/>
      <resource>
         <ObservationDefinition>
            <id value="ProteinConcentration"/>
            <title value="Protein Concentration"/>
            <status value="active"/>
            <code>
               <coding>
                  <system value="http://dummy.loinc.org"/>
                  <code value="XXX"/>
                  <display value="Protein Concentration (mg/mL)"/>
               </coding>
            </code>
            <qualifiedValue>
               <range>
                  <low>
                     <value value="8"/>
                     <unit value="(mg/mL)"/>
                     <!-- todo UCUM -->
                  </low>
                  <high>
                     <value value="10"/>
                     <unit value="(mg/mL)"/>
                     <!-- todo UCUM -->
                  </high>
               </range>
            </qualifiedValue>
            <component>
               <code>
                  <coding>
                     <system value="http://dummy.loinc.org"/>
                     <code value="XXX"/>
                     <display value="Protein Concentration - Beginning - Min"/>
                  </coding>
               </code>
            </component>
            <component>
               <code>
                  <coding>
                     <system value="http://dummy.loinc.org"/>
                     <code value="XXX"/>
                     <display value="Protein Concentration - Beginning - Max"/>
                  </coding>
               </code>
            </component>
            <component>
               <code>
                  <coding>
                     <system value="http://dummy.loinc.org"/>
                     <code value="XXX"/>
                     <display value="Protein Concentration - Middle - Min"/>
                  </coding>
               </code>
            </component>
            <component>
               <code>
                  <coding>
                     <system value="http://dummy.loinc.org"/>
                     <code value="XXX"/>
                     <display value="Protein Concentration - Middle - Max"/>
                  </coding>
               </code>
            </component>
            <component>
               <code>
                  <coding>
                     <system value="http://dummy.loinc.org"/>
                     <code value="XXX"/>
                     <display value="Protein Concentration - End - Min"/>
                  </coding>
               </code>
            </component>
            <component>
               <code>
                  <coding>
                     <system value="http://dummy.loinc.org"/>
                     <code value="XXX"/>
                     <display value="Protein Concentration - End - Max"/>
                  </coding>
               </code>
            </component>
         </ObservationDefinition>
      </resource>
   </entry>
   <entry>
      <fullUrl value="urn:uuid:74515b3c-5134-448a-9c19-939ce1958534"/>
      <resource>
         <ObservationDefinition>
            <id value="ProteinConcentrationStats"/>
            <title value="Protein Concentration Stats"/>
            <status value="active"/>
            <code>
               <coding>
                  <system value="http://dummy.loinc.org"/>
                  <code value="XXX"/>
                  <display value="Protein Concentration Statistics"/>
               </coding>
            </code>
            <qualifiedValue>
               <range>
                  <low>
                     <value value="8"/>
                     <unit value="(mg/mL)"/>
                     <!-- todo UCUM -->
                  </low>
                  <high>
                     <value value="10"/>
                     <unit value="(mg/mL)"/>
                     <!-- todo UCUM -->
                  </high>
               </range>
            </qualifiedValue>
            <component>
               <code>
                  <coding>
                     <system value="http://dummy.loinc.org"/>
                     <code value="XXX"/>
                     <display value="Protein Concentration - Beginning - Middle - Mean"/>
                  </coding>
               </code>
            </component>
            <component>
               <code>
                  <coding>
                     <system value="http://dummy.loinc.org"/>
                     <code value="XXX"/>
                     <display value="Protein Concentration - Beginning - End - Mean"/>
                  </coding>
               </code>
            </component>
            <component>
               <code>
                  <coding>
                     <system value="http://dummy.loinc.org"/>
                     <code value="XXX"/>
                     <display value="Protein Concentration - Middle - End - Mean"/>
                  </coding>
               </code>
            </component>
            <component>
               <code>
                  <coding>
                     <system value="http://dummy.loinc.org"/>
                     <code value="XXX"/>
                     <display value="Protein Concentration - Beginning - Middle - Lower"/>
                  </coding>
               </code>
            </component>
            <component>
               <code>
                  <coding>
                     <system value="http://dummy.loinc.org"/>
                     <code value="XXX"/>
                     <display value="Protein Concentration - Beginning - End - Lower"/>
                  </coding>
               </code>
            </component>
            <component>
               <code>
                  <coding>
                     <system value="http://dummy.loinc.org"/>
                     <code value="XXX"/>
                     <display value="Protein Concentration - Middle - End - Lower"/>
                  </coding>
               </code>
            </component>
            <component>
               <code>
                  <coding>
                     <system value="http://dummy.loinc.org"/>
                     <code value="XXX"/>
                     <display value="Protein Concentration - Beginning - Middle - Higher"/>
                  </coding>
               </code>
            </component>
            <component>
               <code>
                  <coding>
                     <system value="http://dummy.loinc.org"/>
                     <code value="XXX"/>
                     <display value="Protein Concentration - Beginning - End - Higher"/>
                  </coding>
               </code>
            </component>
            <component>
               <code>
                  <coding>
                     <system value="http://dummy.loinc.org"/>
                     <code value="XXX"/>
                     <display value="Protein Concentration - Middle - End - Higher"/>
                  </coding>
               </code>
            </component>
            <component>
               <code>
                  <coding>
                     <system value="http://dummy.loinc.org"/>
                     <code value="XXX"/>
                     <display value="Protein Concentration - Conclusion"/>
                  </coding>
               </code>
            </component>
         </ObservationDefinition>
      </resource>
   </entry>
   <entry>
      <fullUrl value="urn:uuid:64515b3c-5134-448a-9c19-939ce2958524"/>
      <resource>
         <ObservationDefinition>
            <id value="FillWeight"/>
            <title value="Fill Weight"/>
            <status value="active"/>
            <code>
               <coding>
                  <system value="http://dummy.loinc.org"/>
                  <code value="XXX"/>
                  <display value="Fill Weight"/>
               </coding>
            </code>
            <qualifiedValue>
               <extension url="http://accumulus.org/fhir/extension/qualifiedValueTarget">
                  <valueQuantity>
                     <value value="100"/>
                     <unit value="g"/>
                     <!-- todo UCUM -->
                  </valueQuantity>
               </extension>
               <range>
                  <low>
                     <value value="95"/>
                     <unit value="g"/>
                     <!-- todo UCUM -->
                  </low>
                  <high>
                     <value value="105"/>
                     <unit value="g"/>
                     <!-- todo UCUM -->
                  </high>
               </range>
            </qualifiedValue>
            <component>
               <code>
                  <coding>
                     <system value="http://dummy.loinc.org"/>
                     <code value="XXX"/>
                     <display value="Bioburden - Beginning"/>
                  </coding>
               </code>
            </component>
            <component>
               <code>
                  <coding>
                     <system value="http://dummy.loinc.org"/>
                     <code value="XXX"/>
                     <display value="Bioburden - End"/>
                  </coding>
               </code>
            </component>
         </ObservationDefinition>
      </resource>
   </entry>
   <entry>
      <fullUrl value="urn:uuid:64515b3c-5134-448a-9d19-939ce1958524"/>
      <resource>
         <ObservationDefinition>
            <id value="GrowthPromotion"/>
            <title value="Growth Promotion"/>
            <status value="active"/>
            <code>
               <coding>
                  <system value="http://dummy.loinc.org"/>
                  <code value="XXX"/>
                  <display value="GrowthPromotion"/>
               </coding>
            </code>
            <qualifiedValue>
               <extension url="http://accumulus.org/fhir/extension/qualifiedValueText">
                  <valueString value="Pass"/>
               </extension>
            </qualifiedValue>
            <component>
               <code>
                  <coding>
                     <system value="http://dummy.loinc.org"/>
                     <code value="XXX"/>
                     <display value="Growth Promotion - Beginning"/>
                  </coding>
               </code>
            </component>
            <component>
               <code>
                  <coding>
                     <system value="http://dummy.loinc.org"/>
                     <code value="XXX"/>
                     <display value="Growth Promotion - End"/>
                  </coding>
               </code>
            </component>
         </ObservationDefinition>
      </resource>
   </entry>
   <entry>
      <fullUrl value="urn:uuid:64515b3c-5134-448a-9c19-939ce1958434"/>
      <resource>
         <ObservationDefinition>
            <id value="PreFiltrationBioburden"/>
            <title value="Pre-filtration Bioburden"/>
            <status value="active"/>
            <code>
               <coding>
                  <system value="http://dummy.loinc.org"/>
                  <code value="XXX"/>
                  <display value="Pre-filtration Bioburden (CFU/ 100 mL)"/>
               </coding>
            </code>
            <qualifiedValue>
               <range>
                  <high>
                     <value value="150"/>
                     <unit value="CFU/ 100 mL"/>
                     <!-- todo UCUM -->
                  </high>
               </range>
            </qualifiedValue>
         </ObservationDefinition>
      </resource>
   </entry>
   <entry>
      <fullUrl value="urn:uuid:64515b3c-5134-448a-9c19-949ce1958424"/>
      <resource>
         <ObservationDefinition>
            <id value="BacterialEndotoxins"/>
            <title value="Bacterial Endotoxins"/>
            <status value="active"/>
            <code>
               <coding>
                  <system value="http://dummy.loinc.org"/>
                  <code value="XXX"/>
                  <display value="Bacterial Endotoxins (EU/mL)"/>
               </coding>
            </code>
            <qualifiedValue>
               <range>
                  <low>
                     <value value="40"/>
                     <unit value="EU/mL"/>
                     <!-- todo UCUM -->
                  </low>
                  <high>
                     <value value="120"/>
                     <unit value="EU/mL"/>
                     <!-- todo UCUM -->
                  </high>
               </range>
            </qualifiedValue>
         </ObservationDefinition>
      </resource>
   </entry>
   <entry>
      <fullUrl value="urn:uuid:64515b4c-5134-448a-9c19-949ce1958424"/>
      <resource>
         <ObservationDefinition>
            <id value="ThawingBacterialEndotoxins"/>
            <title value="Bacterial Endotoxins"/>
            <status value="active"/>
            <code>
               <coding>
                  <system value="http://dummy.loinc.org"/>
                  <code value="XXX"/>
                  <display value="Bacterial Endotoxins (EU/mL)"/>
               </coding>
            </code>
            <qualifiedValue>
               <range>
                  <low>
                     <value value="50"/>
                     <unit value="EU/mL"/>
                     <!-- todo UCUM -->
                  </low>
                  <high>
                     <value value="110"/>
                     <unit value="EU/mL"/>
                     <!-- todo UCUM -->
                  </high>
               </range>
            </qualifiedValue>
         </ObservationDefinition>
      </resource>
   </entry>
   <entry>
      <fullUrl value="urn:uuid:74515b3c-5134-448a-9c19-949ce1958434"/>
      <resource>
         <ObservationDefinition>
            <id value="FiltrationPressure"/>
            <title value="Filtration Pressure"/>
            <status value="active"/>
            <code>
               <coding>
                  <system value="http://dummy.loinc.org"/>
                  <code value="XXX"/>
                  <display value="FiltrationPressure (psig)"/>
               </coding>
            </code>
            <qualifiedValue>
               <range>
                  <low>
                     <value value="100"/>
                     <unit value="psig"/>
                     <!-- todo UCUM -->
                  </low>
                  <high>
                     <value value="150"/>
                     <unit value="psig"/>
                     <!-- todo UCUM -->
                  </high>
               </range>
            </qualifiedValue>
         </ObservationDefinition>
      </resource>
   </entry>
   <entry>
      <fullUrl value="urn:uuid:75515b3c-5134-448a-9c19-949ce1958434"/>
      <resource>
         <ObservationDefinition>
            <id value="PostFiltrationFilterIntegrity"/>
            <title value="Post-filtration Filter Integrity (psig)"/>
            <status value="active"/>
            <code>
               <coding>
                  <system value="http://dummy.loinc.org"/>
                  <code value="XXX"/>
                  <display value="Post-filtration Filter Integrity (psig)"/>
               </coding>
            </code>
            <qualifiedValue>
               <range>
                  <low>
                     <value value="100"/>
                     <unit value="psig"/>
                     <!-- todo UCUM -->
                  </low>
               </range>
            </qualifiedValue>
            <component>
               <code>
                  <coding>
                     <system value="http://dummy.loinc.org"/>
                     <code value="test-success"/>
                     <display value="Test Success"/>
                  </coding>
               </code>
            </component>
         </ObservationDefinition>
      </resource>
   </entry>
   <entry>
      <fullUrl value="urn:uuid:75515c3c-5134-448a-9c19-949ce1958434"/>
      <resource>
         <ObservationDefinition>
            <id value="MediaHoldTime"/>
            <title value="Media Challenge Hold Times (hours)"/>
            <status value="active"/>
            <code>
               <coding>
                  <system value="http://dummy.loinc.org"/>
                  <code value="XXX"/>
                  <display value="Media Challenge Hold Times"/>
               </coding>
            </code>
         </ObservationDefinition>
      </resource>
   </entry>
   <entry>
      <fullUrl value="urn:uuid:64515b3c-5134-448a-9c19-949ce1958434"/>
      <resource>
         <ObservationDefinition>
            <id value="Polysorbate"/>
            <title value="Polysorbate 80"/>
            <status value="active"/>
            <code>
               <coding>
                  <system value="http://dummy.loinc.org"/>
                  <code value="XXX"/>
                  <display value="Polysorbate 80 (% w/v)"/>
               </coding>
            </code>
            <qualifiedValue>
               <range>
                  <low>
                     <value value="25"/>
                     <unit value="% w/v"/>
                     <!-- todo UCUM -->
                  </low>
                  <high>
                     <value value="55"/>
                     <unit value="% w/v"/>
                     <!-- todo UCUM -->
                  </high>
               </range>
            </qualifiedValue>
         </ObservationDefinition>
      </resource>
   </entry>
   <!-- Section 8 - Batch or Lot Information (batch 1 of 3) -->
   <entry>
      <fullUrl value="urn:uuid:339b69fd-4ab1-a1e9-9ea5-1972ba2f6b51"/>
      <resource>
         <Medication>
            <id value="medication-actual-batch-1"/>
            <contained>
               <PackagedProductDefinition>
                  <id value="ppd1-nosubject"/>
                  <containedItemQuantity>
                     <value value="20"/>
                     <unit value="ml"/>
                  </containedItemQuantity>
               </PackagedProductDefinition>
            </contained>
            <code>
               <extension url="http://hl7.org/fhir/uv/dx-pq/StructureDefinition/Extension-medication-definition-dxpq">
                  <valueReference> <!-- todo consider change this be the MID? -->
                     <reference value="MedicinalProductDefinition/medicinalproductdefinition-drug-product-dxpq-ex1"/>
                     <!--reference value="urn:uuid:a0694a7a-aafa-4cbe-8135-c788a9a4d3d5"/-->
                  </valueReference>
               </extension>
               <extension url="http://hl7.org/fhir/uv/dx-pq/StructureDefinition/Extension-package-definition-dxpq">
                  <valueReference>
                     <reference value="#ppd1-nosubject"/>
                  </valueReference>
               </extension>
            </code>
            <!--totalVolume-->
            <!-- considered this as presentation (package size). Unclear how to use it, esp. for non-liquids -->
            <batch>
               <extension url="http://hl7.org/fhir/StructureDefinition/medication-manufacturingBatch">
                  <extension url="http://hl7.org/fhir/uv/dx-pq/StructureDefinition/Extension-batch-release-date-dxpq">
                     <valueDateTime value="2019-09-08"/>
                     <!-- #171 -->
                  </extension>
                  <extension url="http://accumulus.org/fhir/extension/formulationNumber">
                     <valueString value="1333224444"/>
                  </extension>
                  <extension url="http://hl7.org/fhir/uv/dx-pq/StructureDefinition/Extension-batch-designation-dxpq">
                     <valueCodeableConcept>
                        <coding>
                           <system value="http://temp.hl7.org/fhir/us/pq-cmc/CodeSystem/pqcmc-batch-designation"/>
                           <code value="minimum"/>
                           <display value="Minimum"/>
                        </coding>
                        <text value="Minimum"/>
                     </valueCodeableConcept>
                  </extension>
                  <extension url="http://hl7.org/fhir/uv/dx-pq/StructureDefinition/Extension-batch-number-of-vials-dxpq">
                     <valuePositiveInt value="3"/>
                  </extension>
                  <extension url="http://hl7.org/fhir/uv/dx-pq/StructureDefinition/Extension-batch-number-of-full-shelves-dxpq">
                     <valuePositiveInt value="4"/>
                  </extension>
                  <extension url="http://hl7.org/fhir/uv/dx-pq/StructureDefinition/Extension-batch-number-of-partial-shelves-dxpq">
                     <valuePositiveInt value="5"/>
                  </extension>
                  <extension url="http://hl7.org/fhir/uv/dx-pq/StructureDefinition/Extension-batch-substance-batch-dxpq">
                     <valueReference>
                        <reference value="Substance/substance-dxpq-ex1"/>
                     </valueReference>
                  </extension>
                  <extension url="manufacturingDate"> <!-- #157 -->
                     <valueDateTime value="2020-06-01"/>
                  </extension>
                  <extension url="http://hl7.org/fhir/uv/dx-pq/StructureDefinition/Extension-packaging-date-dxpq"> <!-- #159 -->
                     <valueDateTime value="2020-08"/>
                  </extension>
                  <extension url="http://hl7.org/fhir/uv/dx-pq/StructureDefinition/Extension-packaging-site-dxpq">
                     <valueReference>
                        <reference value="Organization/packaging"/>
                     </valueReference>
                  </extension>
                  <extension url="batchQuantity">
                     <valueQuantity>
                                <!-- #26 --><!-- #155 --><!-- need to see if one of these needs changing -->
                        <value value="100100"/>
                        <unit value="tablets"/>
                     </valueQuantity>
                  </extension>
                  <extension url="http://hl7.org/fhir/uv/dx-pq/StructureDefinition/Extension-actual-yield-dxpq">
                     <valueQuantity> <!-- #160 -->
                        <value value="4.81"/>
                        <unit value="kg"/>
                     </valueQuantity>
                  </extension>
                  <extension url="http://hl7.org/fhir/uv/dx-pq/StructureDefinition/Extension-actual-yield-unfiltered-dxpq">
                     <valueQuantity>
                        <value value="4.91"/>
                        <unit value="kg"/>
                     </valueQuantity>
                  </extension>
                  <extension url="http://hl7.org/fhir/uv/dx-pq/StructureDefinition/Extension-target-fill-weight-dxpq">
                     <valueQuantity>
                        <value value="30"/>
                        <unit value="g"/>
                     </valueQuantity>
                  </extension>
                  <extension url="batchUtilization"> <!-- #159 -->
                     <valueCodeableConcept>
                        <coding>
                           <extension url="http://nprogram.co.uk/fhir/extension/instanceComment">
                              <valueString value="Comment: This has a value set defined in PQ/CMC but no code system"/>
                           </extension>
                           <system value="http://temp.hl7.org/fhir/us/pq-cmc/CodeSystem/pqcmc-batch-utilization-terminology"/>
                           <code value="C185328"/>
                           <display value="Stability Study"/>
                        </coding>
                        <text value="PPQ / Stability"/>
                     </valueCodeableConcept>
                  </extension>
                  <extension url="assignedManufacturer">
                     <valueReference> <!-- #158 -->
                        <reference value="Organization/manufacturer"/>
                     </valueReference>
                  </extension>
                  <extension url="container">
                     <extension url="closureSystemDescription">
                        <valueString value="100 cc HDPE Bottle 2 g desiccant"/>
                     </extension>
                  </extension>
               </extension>
               <!-- #153 -->
               <lotNumber value="999909"/>
            </batch>
         </Medication>
      </resource>
   </entry>
   <entry>
      <fullUrl value="urn:uuid:339b69fd-4ab1-a1e9-9ea5-1973ba2f6b51"/>
      <resource>
         <Medication>
            <id value="medication-actual-batch-1b"/>
            <contained>
               <PackagedProductDefinition>
                  <id value="ppd1-nosubject"/>
                  <containedItemQuantity>
                     <value value="50"/>
                     <unit value="ml"/>
                  </containedItemQuantity>
               </PackagedProductDefinition>
            </contained>
            <code>
               <extension url="http://hl7.org/fhir/uv/dx-pq/StructureDefinition/Extension-medication-definition-dxpq">
                  <valueReference> <!-- todo consider change this be the MID? -->
                     <reference value="MedicinalProductDefinition/medicinalproductdefinition-drug-product-dxpq-ex1"/>
                     <!--reference value="urn:uuid:a0694a7a-aafa-4cbe-8135-c788a9a4d3d5"/-->
                  </valueReference>
               </extension>
               <extension url="http://hl7.org/fhir/uv/dx-pq/StructureDefinition/Extension-package-definition-dxpq">
                  <valueReference>
                     <reference value="#ppd1-nosubject"/>
                  </valueReference>
               </extension>
            </code>
            <batch>
               <extension url="http://hl7.org/fhir/StructureDefinition/medication-manufacturingBatch">
                  <extension url="http://hl7.org/fhir/uv/dx-pq/StructureDefinition/Extension-batch-release-date-dxpq">
                     <valueDateTime value="2019-09-08"/>
                     <!-- #171 -->
                  </extension>
                  <extension url="http://accumulus.org/fhir/extension/formulationNumber">
                     <valueString value="1333224444"/>
                  </extension>
                  <!--extension url="http://accumulus.org/fhir/extension/manufacturingProcess">
                            <valueReference>
                                <reference value="PlanDefinition/plandefinition-mnf-process-dxpq-ex1"/>
                            </valueReference>
                        </extension-->
                  <extension url="http://hl7.org/fhir/uv/dx-pq/StructureDefinition/Extension-batch-designation-dxpq">
                     <valueCodeableConcept>
                        <coding>
                           <system value="http://temp.hl7.org/fhir/us/pq-cmc/CodeSystem/pqcmc-batch-designation"/>
                           <code value="maximum"/>
                           <display value="Maximum"/>
                        </coding>
                        <text value="Maximum"/>
                     </valueCodeableConcept>
                  </extension>
                  <extension url="http://hl7.org/fhir/uv/dx-pq/StructureDefinition/Extension-batch-number-of-vials-dxpq">
                     <valuePositiveInt value="3"/>
                  </extension>
                  <extension url="http://hl7.org/fhir/uv/dx-pq/StructureDefinition/Extension-batch-substance-batch-dxpq">
                     <valueReference>
                        <reference value="Substance/substance-dxpq-ex1"/>
                     </valueReference>
                  </extension>
                  <extension url="manufacturingDate"> <!-- #157 -->
                     <valueDateTime value="2020-06-02"/>
                  </extension>
                  <extension url="http://hl7.org/fhir/uv/dx-pq/StructureDefinition/Extension-packaging-date-dxpq"> <!-- #159 -->
                     <valueDateTime value="2020-08"/>
                  </extension>
                  <extension url="http://hl7.org/fhir/uv/dx-pq/StructureDefinition/Extension-packaging-site-dxpq">
                     <valueReference>
                        <reference value="Organization/packaging"/>
                     </valueReference>
                  </extension>
                  <extension url="batchQuantity">
                     <valueQuantity>
                                <!-- #26 --><!-- #155 --><!-- need to see if one of these needs changing -->
                        <value value="100100"/>
                        <unit value="tablets"/>
                     </valueQuantity>
                  </extension>
                  <extension url="http://hl7.org/fhir/uv/dx-pq/StructureDefinition/Extension-actual-yield-dxpq">
                     <valueQuantity> <!-- #160 -->
                        <value value="4.81"/>
                        <unit value="kg"/>
                     </valueQuantity>
                  </extension>
                  <extension url="http://hl7.org/fhir/uv/dx-pq/StructureDefinition/Extension-actual-yield-unfiltered-dxpq">
                     <valueQuantity>
                        <value value="4.91"/>
                        <unit value="kg"/>
                     </valueQuantity>
                  </extension>
                  <extension url="http://hl7.org/fhir/uv/dx-pq/StructureDefinition/Extension-target-fill-weight-dxpq">
                     <valueQuantity>
                        <value value="30"/>
                        <unit value="g"/>
                     </valueQuantity>
                  </extension>
                  <extension url="batchUtilization"> <!-- #159 -->
                     <valueCodeableConcept>
                        <coding>
                           <extension url="http://nprogram.co.uk/fhir/extension/instanceComment">
                              <valueString value="Comment: This has a value set defined in PQ/CMC but no code system"/>
                           </extension>
                           <system value="http://temp.hl7.org/fhir/us/pq-cmc/CodeSystem/pqcmc-batch-utilization-terminology"/>
                           <code value="C185328"/>
                           <display value="Stability Study"/>
                        </coding>
                        <text value="PPQ / Stability"/>
                     </valueCodeableConcept>
                  </extension>
                  <extension url="assignedManufacturer">
                     <valueReference> <!-- #158 -->
                        <reference value="Organization/manufacturer"/>
                     </valueReference>
                  </extension>
                  <extension url="container">
                     <extension url="closureSystemDescription">
                        <valueString value="100 cc HDPE Bottle 2 g desiccant"/>
                     </extension>
                  </extension>
               </extension>
               <!-- #153 -->
               <lotNumber value="999910"/>
            </batch>
         </Medication>
      </resource>
   </entry>
   <!-- Section 8 - Batch or Lot Information (another batch 2 of 3) -->
   <entry>
      <fullUrl value="urn:uuid:a9dfda53-734b-045f-7ae4-94a6281d53bc"/>
      <resource>
         <Medication>
            <id value="medication-actual-batch-2"/>
            <contained>
               <PackagedProductDefinition>
                  <id value="ppd1-nosubject"/>
                  <containedItemQuantity>
                     <value value="20"/>
                     <unit value="ml"/>
                  </containedItemQuantity>
               </PackagedProductDefinition>
            </contained>
            <code>
               <extension url="http://hl7.org/fhir/uv/dx-pq/StructureDefinition/Extension-medication-definition-dxpq">
                  <valueReference>
                     <reference value="MedicinalProductDefinition/medicinalproductdefinition-drug-product-dxpq-ex1"/>
                  </valueReference>
               </extension>
               <extension url="http://hl7.org/fhir/uv/dx-pq/StructureDefinition/Extension-package-definition-dxpq">
                  <valueReference>
                     <reference value="#ppd1-nosubject"/>
                  </valueReference>
               </extension>
            </code>
            <batch>
               <extension url="http://hl7.org/fhir/StructureDefinition/medication-manufacturingBatch">
                  <extension url="http://hl7.org/fhir/uv/dx-pq/StructureDefinition/Extension-batch-release-date-dxpq">
                     <valueDateTime value="2019-09-08"/>
                  </extension>
                  <!--extension url="http://accumulus.org/fhir/extension/manufacturingProcess">
                            <valueReference>
                                <reference value="PlanDefinition/plandefinition-mnf-process-dxpq-ex1"/>
                            </valueReference>
                        </extension-->
                  <extension url="http://accumulus.org/fhir/extension/formulationNumber">
                     <valueString value="1333225555"/>
                  </extension>
                  <extension url="http://hl7.org/fhir/uv/dx-pq/StructureDefinition/Extension-batch-designation-dxpq">
                     <valueCodeableConcept>
                        <coding>
                           <system value="http://temp.hl7.org/fhir/us/pq-cmc/CodeSystem/pqcmc-batch-designation"/>
                           <code value="maximum"/>
                           <display value="Maximum"/>
                        </coding>
                        <text value="Maximum"/>
                     </valueCodeableConcept>
                  </extension>
                  <extension url="http://hl7.org/fhir/uv/dx-pq/StructureDefinition/Extension-batch-number-of-vials-dxpq">
                     <valuePositiveInt value="4"/>
                  </extension>
                  <extension url="http://hl7.org/fhir/uv/dx-pq/StructureDefinition/Extension-batch-substance-batch-dxpq">
                     <valueReference>
                        <reference value="Substance/actual-batch-substance-2"/>
                     </valueReference>
                  </extension>
                  <extension url="manufacturingDate">
                     <valueDateTime value="2020-06-01"/>
                  </extension>
                  <extension url="http://hl7.org/fhir/uv/dx-pq/StructureDefinition/Extension-packaging-date-dxpq">
                     <valueDateTime value="2020-08"/>
                  </extension>
                  <extension url="http://hl7.org/fhir/uv/dx-pq/StructureDefinition/Extension-packaging-site-dxpq">
                     <valueReference>
                        <reference value="Organization/packaging"/>
                     </valueReference>
                  </extension>
                  <extension url="batchQuantity">
                     <valueQuantity>
                        <value value="100050"/>
                        <unit value="tablets"/>
                     </valueQuantity>
                  </extension>
                  <extension url="http://hl7.org/fhir/uv/dx-pq/StructureDefinition/Extension-actual-yield-dxpq">
                     <valueQuantity>
                        <value value="4.82"/>
                        <unit value="kg"/>
                     </valueQuantity>
                  </extension>
                  <extension url="http://hl7.org/fhir/uv/dx-pq/StructureDefinition/Extension-actual-yield-unfiltered-dxpq">
                     <valueQuantity>
                        <value value="4.92"/>
                        <unit value="kg"/>
                     </valueQuantity>
                  </extension>
                  <extension url="http://hl7.org/fhir/uv/dx-pq/StructureDefinition/Extension-target-fill-weight-dxpq">
                     <valueQuantity>
                        <value value="30"/>
                        <unit value="g"/>
                     </valueQuantity>
                  </extension>
                  <extension url="batchUtilization">
                     <valueCodeableConcept>
                        <coding>
                           <extension url="http://nprogram.co.uk/fhir/extension/instanceComment">
                              <valueString value="Comment: This has a value set defined in PQ/CMC but no code system"/>
                           </extension>
                           <system value="http://temp.hl7.org/fhir/us/pq-cmc/CodeSystem/pqcmc-batch-utilization-terminology"/>
                           <code value="C185328"/>
                           <display value="Stability Study"/>
                        </coding>
                        <text value="PPQ / Stability"/>
                     </valueCodeableConcept>
                  </extension>
                  <extension url="assignedManufacturer">
                     <valueReference>
                        <reference value="Organization/manufacturer"/>
                     </valueReference>
                  </extension>
                  <extension url="container">
                     <extension url="closureSystemDescription">
                        <valueString value="100 cc HDPE Bottle 2 g desiccant"/>
                     </extension>
                  </extension>
               </extension>
               <lotNumber value="999911"/>
            </batch>
         </Medication>
      </resource>
   </entry>
   <!-- Section 8 - Batch or Lot Information (another batch 2 of 3) -->
   <entry>
      <fullUrl value="urn:uuid:a9dfda53-734b-045f-7ae5-94a6281d53bc"/>
      <resource>
         <Medication>
            <id value="medication-actual-batch-2b"/>
            <contained>
               <PackagedProductDefinition>
                  <id value="ppd1-nosubject"/>
                  <containedItemQuantity>
                     <value value="50"/>
                     <unit value="ml"/>
                  </containedItemQuantity>
               </PackagedProductDefinition>
            </contained>
            <code>
               <extension url="http://hl7.org/fhir/uv/dx-pq/StructureDefinition/Extension-medication-definition-dxpq">
                  <valueReference>
                     <reference value="MedicinalProductDefinition/medicinalproductdefinition-drug-product-dxpq-ex1"/>
                  </valueReference>
               </extension>
               <extension url="http://hl7.org/fhir/uv/dx-pq/StructureDefinition/Extension-package-definition-dxpq">
                  <valueReference>
                     <reference value="#ppd1-nosubject"/>
                  </valueReference>
               </extension>
            </code>
            <batch>
               <extension url="http://hl7.org/fhir/StructureDefinition/medication-manufacturingBatch">
                  <extension url="http://hl7.org/fhir/uv/dx-pq/StructureDefinition/Extension-batch-release-date-dxpq">
                     <valueDateTime value="2019-09-08"/>
                  </extension>
                  <!--extension url="http://accumulus.org/fhir/extension/manufacturingProcess">
                            <valueReference>
                                <reference value="PlanDefinition/plandefinition-mnf-process-dxpq-ex1"/>
                            </valueReference>
                        </extension-->
                  <extension url="http://accumulus.org/fhir/extension/formulationNumber">
                     <valueString value="1333225555"/>
                  </extension>
                  <extension url="http://hl7.org/fhir/uv/dx-pq/StructureDefinition/Extension-batch-designation-dxpq">
                     <valueCodeableConcept>
                        <coding>
                           <system value="http://temp.hl7.org/fhir/us/pq-cmc/CodeSystem/pqcmc-batch-designation"/>
                           <code value="maximum"/>
                           <display value="Maximum"/>
                        </coding>
                        <text value="Maximum"/>
                     </valueCodeableConcept>
                  </extension>
                  <extension url="http://hl7.org/fhir/uv/dx-pq/StructureDefinition/Extension-batch-number-of-vials-dxpq">
                     <valuePositiveInt value="4"/>
                  </extension>
                  <extension url="http://hl7.org/fhir/uv/dx-pq/StructureDefinition/Extension-batch-substance-batch-dxpq">
                     <valueReference>
                        <reference value="Substance/actual-batch-substance-2"/>
                     </valueReference>
                  </extension>
                  <extension url="manufacturingDate">
                     <valueDateTime value="2020-06-02"/>
                  </extension>
                  <extension url="http://hl7.org/fhir/uv/dx-pq/StructureDefinition/Extension-packaging-date-dxpq">
                     <valueDateTime value="2020-08"/>
                  </extension>
                  <extension url="http://hl7.org/fhir/uv/dx-pq/StructureDefinition/Extension-packaging-site-dxpq">
                     <valueReference>
                        <reference value="Organization/packaging"/>
                     </valueReference>
                  </extension>
                  <extension url="batchQuantity">
                     <valueQuantity>
                        <value value="100050"/>
                        <unit value="tablets"/>
                     </valueQuantity>
                  </extension>
                  <extension url="http://hl7.org/fhir/uv/dx-pq/StructureDefinition/Extension-actual-yield-dxpq">
                     <valueQuantity>
                        <value value="4.82"/>
                        <unit value="kg"/>
                     </valueQuantity>
                  </extension>
                  <extension url="http://hl7.org/fhir/uv/dx-pq/StructureDefinition/Extension-actual-yield-unfiltered-dxpq">
                     <valueQuantity>
                        <value value="4.92"/>
                        <unit value="kg"/>
                     </valueQuantity>
                  </extension>
                  <extension url="http://hl7.org/fhir/uv/dx-pq/StructureDefinition/Extension-target-fill-weight-dxpq">
                     <valueQuantity>
                        <value value="30"/>
                        <unit value="g"/>
                     </valueQuantity>
                  </extension>
                  <extension url="batchUtilization">
                     <valueCodeableConcept>
                        <coding>
                           <extension url="http://nprogram.co.uk/fhir/extension/instanceComment">
                              <valueString value="Comment: This has a value set defined in PQ/CMC but no code system"/>
                           </extension>
                           <system value="http://temp.hl7.org/fhir/us/pq-cmc/CodeSystem/pqcmc-batch-utilization-terminology"/>
                           <code value="C185328"/>
                           <display value="Stability Study"/>
                        </coding>
                        <text value="PPQ / Stability"/>
                     </valueCodeableConcept>
                  </extension>
                  <extension url="assignedManufacturer">
                     <valueReference>
                        <reference value="Organization/manufacturer"/>
                     </valueReference>
                  </extension>
                  <extension url="container">
                     <extension url="closureSystemDescription">
                        <valueString value="100 cc HDPE Bottle 2 g desiccant"/>
                     </extension>
                  </extension>
               </extension>
               <lotNumber value="999912"/>
            </batch>
         </Medication>
      </resource>
   </entry>
   <!-- Section 8 - Batch or Lot Information (another batch 3 of 3) -->
   <entry>
      <fullUrl value="urn:uuid:c6f5fadd-62e6-3a01-93d9-b3b182f67d06"/>
      <resource>
         <Medication>
            <id value="medication-actual-batch-3"/>
            <contained>
               <PackagedProductDefinition>
                  <id value="ppd1-nosubject"/>
                  <containedItemQuantity>
                     <value value="20"/>
                     <unit value="ml"/>
                  </containedItemQuantity>
               </PackagedProductDefinition>
            </contained>
            <code>
               <extension url="http://hl7.org/fhir/uv/dx-pq/StructureDefinition/Extension-medication-definition-dxpq">
                  <valueReference>
                     <reference value="MedicinalProductDefinition/medicinalproductdefinition-drug-product-dxpq-ex1"/>
                  </valueReference>
               </extension>
               <extension url="http://hl7.org/fhir/uv/dx-pq/StructureDefinition/Extension-package-definition-dxpq">
                  <valueReference>
                     <reference value="#ppd1-nosubject"/>
                  </valueReference>
               </extension>
            </code>
            <batch>
               <extension url="http://hl7.org/fhir/StructureDefinition/medication-manufacturingBatch">
                  <extension url="http://hl7.org/fhir/uv/dx-pq/StructureDefinition/Extension-batch-release-date-dxpq">
                     <valueDateTime value="2019-09-08"/>
                  </extension>
                  <!--extension url="http://accumulus.org/fhir/extension/manufacturingProcess">
                            <valueReference>
                                <reference value="PlanDefinition/plandefinition-mnf-process-dxpq-ex1"/>
                            </valueReference>
                        </extension-->
                  <extension url="http://accumulus.org/fhir/extension/formulationNumber">
                     <valueString value="1333226666"/>
                  </extension>
                  <extension url="http://hl7.org/fhir/uv/dx-pq/StructureDefinition/Extension-batch-designation-dxpq">
                     <valueCodeableConcept>
                        <coding>
                           <system value="http://temp.hl7.org/fhir/us/pq-cmc/CodeSystem/pqcmc-batch-designation"/>
                           <code value="maximum"/>
                           <display value="Maximum"/>
                        </coding>
                        <text value="Maximum"/>
                     </valueCodeableConcept>
                  </extension>
                  <extension url="http://hl7.org/fhir/uv/dx-pq/StructureDefinition/Extension-batch-number-of-vials-dxpq">
                     <valuePositiveInt value="3"/>
                  </extension>
                  <extension url="http://hl7.org/fhir/uv/dx-pq/StructureDefinition/Extension-batch-substance-batch-dxpq">
                     <valueReference>
                        <reference value="Substance/actual-batch-substance-3"/>
                     </valueReference>
                  </extension>
                  <extension url="manufacturingDate">
                     <valueDateTime value="2020-06-01"/>
                  </extension>
                  <extension url="http://hl7.org/fhir/uv/dx-pq/StructureDefinition/Extension-packaging-date-dxpq">
                     <valueDateTime value="2020-08"/>
                  </extension>
                  <extension url="http://hl7.org/fhir/uv/dx-pq/StructureDefinition/Extension-packaging-site-dxpq">
                     <valueReference>
                        <reference value="Organization/packaging"/>
                     </valueReference>
                  </extension>
                  <extension url="batchQuantity">
                     <valueQuantity>
                        <value value="100125"/>
                        <unit value="tablets"/>
                     </valueQuantity>
                  </extension>
                  <extension url="http://hl7.org/fhir/uv/dx-pq/StructureDefinition/Extension-actual-yield-dxpq">
                     <valueQuantity>
                        <value value="4.83"/>
                        <unit value="kg"/>
                     </valueQuantity>
                  </extension>
                  <extension url="http://hl7.org/fhir/uv/dx-pq/StructureDefinition/Extension-actual-yield-unfiltered-dxpq">
                     <valueQuantity>
                        <value value="4.93"/>
                        <unit value="kg"/>
                     </valueQuantity>
                  </extension>
                  <extension url="http://hl7.org/fhir/uv/dx-pq/StructureDefinition/Extension-target-fill-weight-dxpq">
                     <valueQuantity>
                        <value value="30"/>
                        <unit value="g"/>
                     </valueQuantity>
                  </extension>
                  <extension url="batchUtilization">
                     <valueCodeableConcept>
                        <coding>
                           <extension url="http://nprogram.co.uk/fhir/extension/instanceComment">
                              <valueString value="Comment: This has a value set defined in PQ/CMC but no code system"/>
                           </extension>
                           <system value="http://temp.hl7.org/fhir/us/pq-cmc/CodeSystem/pqcmc-batch-utilization-terminology"/>
                           <code value="C185328"/>
                           <display value="Stability Study"/>
                        </coding>
                        <text value="PPQ / Stability"/>
                     </valueCodeableConcept>
                  </extension>
                  <extension url="assignedManufacturer">
                     <valueReference>
                        <reference value="Organization/manufacturer"/>
                     </valueReference>
                  </extension>
                  <extension url="container">
                     <extension url="closureSystemDescription">
                        <valueString value="100 cc HDPE Bottle 2 g desiccant"/>
                     </extension>
                  </extension>
               </extension>
               <lotNumber value="999913"/>
            </batch>
         </Medication>
      </resource>
   </entry>
   <entry>
      <fullUrl value="urn:uuid:c6f5fadd-62e6-3a11-93d9-b3b182f67d06"/>
      <resource>
         <Medication>
            <id value="medication-actual-batch-3b"/>
            <contained>
               <PackagedProductDefinition>
                  <id value="ppd1-nosubject"/>
                  <containedItemQuantity>
                     <value value="50"/>
                     <unit value="ml"/>
                  </containedItemQuantity>
               </PackagedProductDefinition>
            </contained>
            <code>
               <extension url="http://hl7.org/fhir/uv/dx-pq/StructureDefinition/Extension-medication-definition-dxpq">
                  <valueReference>
                     <reference value="MedicinalProductDefinition/medicinalproductdefinition-drug-product-dxpq-ex1"/>
                  </valueReference>
               </extension>
               <extension url="http://hl7.org/fhir/uv/dx-pq/StructureDefinition/Extension-package-definition-dxpq">
                  <valueReference>
                     <reference value="#ppd1-nosubject"/>
                  </valueReference>
               </extension>
            </code>
            <batch>
               <extension url="http://hl7.org/fhir/StructureDefinition/medication-manufacturingBatch">
                  <extension url="http://hl7.org/fhir/uv/dx-pq/StructureDefinition/Extension-batch-release-date-dxpq">
                     <valueDateTime value="2019-09-08"/>
                  </extension>
                  <!--extension url="http://accumulus.org/fhir/extension/manufacturingProcess">
                            <valueReference>
                                <reference value="PlanDefinition/plandefinition-mnf-process-dxpq-ex1"/>
                            </valueReference>
                        </extension-->
                  <extension url="http://accumulus.org/fhir/extension/formulationNumber">
                     <valueString value="1333226666"/>
                  </extension>
                  <extension url="http://hl7.org/fhir/uv/dx-pq/StructureDefinition/Extension-batch-designation-dxpq">
                     <valueCodeableConcept>
                        <coding>
                           <system value="http://temp.hl7.org/fhir/us/pq-cmc/CodeSystem/pqcmc-batch-designation"/>
                           <code value="intermediate"/>
                           <display value="Intermediate"/>
                        </coding>
                        <text value="Intermediate"/>
                     </valueCodeableConcept>
                  </extension>
                  <extension url="http://hl7.org/fhir/uv/dx-pq/StructureDefinition/Extension-batch-number-of-vials-dxpq">
                     <valuePositiveInt value="3"/>
                  </extension>
                  <extension url="http://hl7.org/fhir/uv/dx-pq/StructureDefinition/Extension-batch-substance-batch-dxpq">
                     <valueReference>
                        <reference value="Substance/actual-batch-substance-3"/>
                     </valueReference>
                  </extension>
                  <extension url="manufacturingDate">
                     <valueDateTime value="2020-06-02"/>
                  </extension>
                  <extension url="http://hl7.org/fhir/uv/dx-pq/StructureDefinition/Extension-packaging-date-dxpq">
                     <valueDateTime value="2020-08"/>
                  </extension>
                  <extension url="http://hl7.org/fhir/uv/dx-pq/StructureDefinition/Extension-packaging-site-dxpq">
                     <valueReference>
                        <reference value="Organization/packaging"/>
                     </valueReference>
                  </extension>
                  <extension url="batchQuantity">
                     <valueQuantity>
                        <value value="100125"/>
                        <unit value="tablets"/>
                     </valueQuantity>
                  </extension>
                  <extension url="http://hl7.org/fhir/uv/dx-pq/StructureDefinition/Extension-actual-yield-dxpq">
                     <valueQuantity>
                        <value value="4.83"/>
                        <unit value="kg"/>
                     </valueQuantity>
                  </extension>
                  <extension url="http://hl7.org/fhir/uv/dx-pq/StructureDefinition/Extension-actual-yield-unfiltered-dxpq">
                     <valueQuantity>
                        <value value="4.93"/>
                        <unit value="kg"/>
                     </valueQuantity>
                  </extension>
                  <extension url="http://hl7.org/fhir/uv/dx-pq/StructureDefinition/Extension-target-fill-weight-dxpq">
                     <valueQuantity>
                        <value value="30"/>
                        <unit value="g"/>
                     </valueQuantity>
                  </extension>
                  <extension url="batchUtilization">
                     <valueCodeableConcept>
                        <coding>
                           <extension url="http://nprogram.co.uk/fhir/extension/instanceComment">
                              <valueString value="Comment: This has a value set defined in PQ/CMC but no code system"/>
                           </extension>
                           <system value="http://temp.hl7.org/fhir/us/pq-cmc/CodeSystem/pqcmc-batch-utilization-terminology"/>
                           <code value="C185328"/>
                           <display value="Stability Study"/>
                        </coding>
                        <text value="PPQ / Stability"/>
                     </valueCodeableConcept>
                  </extension>
                  <extension url="assignedManufacturer">
                     <valueReference>
                        <reference value="Organization/manufacturer"/>
                     </valueReference>
                  </extension>
                  <extension url="container">
                     <extension url="closureSystemDescription">
                        <valueString value="100 cc HDPE Bottle 2 g desiccant"/>
                     </extension>
                  </extension>
               </extension>
               <lotNumber value="999914"/>
            </batch>
         </Medication>
      </resource>
   </entry>
   <!-- Section 4.1 - Manufacturer -->
   <entry>
      <fullUrl value="urn:uuid:0102bca4-46c1-a6bf-1025-cd403fee710a"/>
      <resource>
         <Organization>
            <id value="manufacturer"/>
            <identifier>
                    <!-- FDA establishment identifier -->
               <system value="urn:oid:2.16.840.1.113883.4.82"/>
               <value value="3010027650"/>
            </identifier>
            <name value="AAA Pharmaceutical, Inc."/>
            <contact>
               <address>
                  <line value="681 Main Street"/>
                  <city value="Lumberton"/>
                  <state value="New Jersey"/>
                  <postalCode value="08048"/>
                  <country value="USA"/>
               </address>
            </contact>
         </Organization>
      </resource>
   </entry>
   <entry>
      <fullUrl value="urn:uuid:378fbe5f-5926-3a5c-4c64-5428df877b07"/>
      <resource>
         <Organization>
            <id value="packaging"/>
            <name value="MySite"/>
         </Organization>
      </resource>
   </entry>
   <entry>
      <fullUrl value="urn:uuid:9c56948a-2a39-6609-1c01-4d197ea57a33"/>
      <resource>
         <Observation>
            <id value="bufferVesselMixingSpeed1"/>
            <instantiatesReference>
               <reference value="ObservationDefinition/bufferVesselMixingSpeed"/>
            </instantiatesReference>
            <status value="final"/>
            <code>
               <coding>
                  <system value="http://dummy.loinc.org"/>
                  <code value="XXX"/>
                  <display value="Buffer vessel mixing speed (rpm)"/>
               </coding>
               <text value="Buffer vessel mixing speed (rpm)"/>
            </code>
            <subject>
               <reference value="Medication/medication-actual-batch-1"/>
            </subject>
            <valueQuantity>
               <value value="205"/>
               <unit value="rpm"/>
            </valueQuantity>
         </Observation>
      </resource>
   </entry>
   <entry>
      <fullUrl value="urn:uuid:9c56948a-3a39-6609-1c01-4d197ea57a33"/>
      <resource>
         <Observation>
            <id value="bufferVesselMixingSpeed2"/>
            <instantiatesReference>
               <reference value="ObservationDefinition/bufferVesselMixingSpeed"/>
            </instantiatesReference>
            <status value="final"/>
            <code>
               <coding>
                  <system value="http://dummy.loinc.org"/>
                  <code value="XXX"/>
                  <display value="Buffer vessel mixing speed (rpm)"/>
               </coding>
               <text value="Buffer vessel mixing speed (rpm)"/>
            </code>
            <subject>
               <reference value="Medication/medication-actual-batch-2"/>
            </subject>
            <valueQuantity>
               <value value="210"/>
               <unit value="rpm"/>
            </valueQuantity>
         </Observation>
      </resource>
   </entry>
   <entry>
      <fullUrl value="urn:uuid:9c56948a-4a39-6609-1c01-4d197ea57a33"/>
      <resource>
         <Observation>
            <id value="bufferVesselMixingSpeed3"/>
            <instantiatesReference>
               <reference value="ObservationDefinition/bufferVesselMixingSpeed"/>
            </instantiatesReference>
            <status value="final"/>
            <code>
               <coding>
                  <system value="http://dummy.loinc.org"/>
                  <code value="XXX"/>
                  <display value="Buffer vessel mixing speed (rpm)"/>
               </coding>
               <text value="Buffer vessel mixing speed (rpm)"/>
            </code>
            <subject>
               <reference value="Medication/medication-actual-batch-3"/>
            </subject>
            <valueQuantity>
               <value value="198"/>
               <unit value="rpm"/>
            </valueQuantity>
         </Observation>
      </resource>
   </entry>
   <entry>
      <fullUrl value="urn:uuid:9c56948a-2a39-6609-2c01-4d197ea57a33"/>
      <resource>
         <Observation>
            <id value="bufferVesselMixingTime1"/>
            <instantiatesReference>
               <reference value="ObservationDefinition/bufferVesselMixingTime"/>
            </instantiatesReference>
            <status value="final"/>
            <code>
               <coding>
                  <system value="http://dummy.loinc.org"/>
                  <code value="XXX"/>
                  <display value="Buffer vessel mixing time (min)"/>
               </coding>
               <text value="Buffer vessel mixing time (min)"/>
            </code>
            <subject>
               <reference value="Medication/medication-actual-batch-1"/>
            </subject>
            <valueQuantity>
               <value value="51"/>
               <unit value="mins"/>
            </valueQuantity>
         </Observation>
      </resource>
   </entry>
   <entry>
      <fullUrl value="urn:uuid:9c56948a-3a39-6609-2c01-4d197ea57a33"/>
      <resource>
         <Observation>
            <id value="bufferVesselMixingTime2"/>
            <instantiatesReference>
               <reference value="ObservationDefinition/bufferVesselMixingTime"/>
            </instantiatesReference>
            <status value="final"/>
            <code>
               <coding>
                  <system value="http://dummy.loinc.org"/>
                  <code value="XXX"/>
                  <display value="Buffer vessel mixing time (min)"/>
               </coding>
               <text value="Buffer vessel mixing time (min)"/>
            </code>
            <subject>
               <reference value="Medication/medication-actual-batch-2"/>
            </subject>
            <valueQuantity>
               <value value="49"/>
               <unit value="mins"/>
            </valueQuantity>
         </Observation>
      </resource>
   </entry>
   <entry>
      <fullUrl value="urn:uuid:9c56948a-4a39-6609-3c01-4d197ea57a33"/>
      <resource>
         <Observation>
            <id value="bufferVesselMixingTime3"/>
            <instantiatesReference>
               <reference value="ObservationDefinition/bufferVesselMixingTime"/>
            </instantiatesReference>
            <status value="final"/>
            <code>
               <coding>
                  <system value="http://dummy.loinc.org"/>
                  <code value="XXX"/>
                  <display value="Buffer vessel mixing time (min)"/>
               </coding>
               <text value="Buffer vessel mixing time (min)"/>
            </code>
            <subject>
               <reference value="Medication/medication-actual-batch-3"/>
            </subject>
            <valueQuantity>
               <value value="52"/>
               <unit value="mins"/>
            </valueQuantity>
         </Observation>
      </resource>
   </entry>
   <entry>
      <fullUrl value="urn:uuid:44aa47fd-8964-4f96-6495-b2bec7f160e7"/>
      <resource>
         <Observation>
            <id value="ph1"/>
            <instantiatesReference>
               <reference value="ObservationDefinition/FBPPIpH"/>
            </instantiatesReference>
            <status value="final"/>
            <code>
               <coding>
                  <system value="http://dummy.loinc.org"/>
                  <code value="XXX"/>
                  <display value="pH"/>
               </coding>
               <text value="pH"/>
            </code>
            <subject>
               <reference value="Medication/medication-actual-batch-1"/>
            </subject>
            <valueQuantity>
               <value value="6.9"/>
               <unit value="pH"/>
            </valueQuantity>
         </Observation>
      </resource>
   </entry>
   <entry>
      <fullUrl value="urn:uuid:54aa47fd-8964-4f96-6495-b2bec7f160e7"/>
      <resource>
         <Observation>
            <id value="ph2"/>
            <instantiatesReference>
               <reference value="ObservationDefinition/FBPPIpH"/>
            </instantiatesReference>
            <status value="final"/>
            <code>
               <coding>
                  <system value="http://dummy.loinc.org"/>
                  <code value="XXX"/>
                  <display value="pH"/>
               </coding>
               <text value="pH"/>
            </code>
            <subject>
               <reference value="Medication/medication-actual-batch-2"/>
            </subject>
            <valueQuantity>
               <value value="7.1"/>
               <unit value="pH"/>
            </valueQuantity>
         </Observation>
      </resource>
   </entry>
   <entry>
      <fullUrl value="urn:uuid:54aa48fd-8964-4f96-6495-b2bec7f160e7"/>
      <resource>
         <Observation>
            <id value="ph3"/>
            <instantiatesReference>
               <reference value="ObservationDefinition/FBPPIpH"/>
            </instantiatesReference>
            <status value="final"/>
            <code>
               <coding>
                  <system value="http://dummy.loinc.org"/>
                  <code value="XXX"/>
                  <display value="pH"/>
               </coding>
               <text value="pH"/>
            </code>
            <subject>
               <reference value="Medication/medication-actual-batch-3"/>
            </subject>
            <valueQuantity>
               <value value="7.2"/>
               <unit value="pH"/>
            </valueQuantity>
         </Observation>
      </resource>
   </entry>
   <entry>
      <fullUrl value="urn:uuid:44aa47fd-9964-5f96-6495-b2bec7f161e8"/>
      <resource>
         <Observation>
            <id value="mediaChallengeHoldTimesStep1"/>
            <instantiatesReference>
               <reference value="ObservationDefinition/MediaHoldTime"/>
            </instantiatesReference>
            <status value="final"/>
            <code>
               <coding>
                  <system value="http://dummy.loinc.org"/>
                  <code value="XXX"/>
                  <display value="Hold Time"/>
               </coding>
               <text value="Hold Time (hr)"/>
            </code>
            <subject>
               <reference value="Procedure/procedure-run-1"/>
            </subject>
            <valueQuantity>
               <value value="1.25"/>
               <unit value="hours"/>
            </valueQuantity>
         </Observation>
      </resource>
   </entry>
   <entry>
      <fullUrl value="urn:uuid:44aa47fd-8964-5f96-6495-b2bec7f161e8"/>
      <resource>
         <Observation>
            <id value="mediaChallengeHoldTimesStep2"/>
            <instantiatesReference>
               <reference value="ObservationDefinition/MediaHoldTime"/>
            </instantiatesReference>
            <status value="final"/>
            <code>
               <coding>
                  <system value="http://dummy.loinc.org"/>
                  <code value="XXX"/>
                  <display value="Hold Time"/>
               </coding>
               <text value="Hold Time (hr)"/>
            </code>
            <subject>
               <reference value="Procedure/procedure-run-2"/>
            </subject>
            <valueQuantity>
               <value value="1.5"/>
               <unit value="hours"/>
            </valueQuantity>
         </Observation>
      </resource>
   </entry>
   <entry>
      <fullUrl value="urn:uuid:44aa47fd-8964-5f96-7495-b2bec7f161e8"/>
      <resource>
         <Observation>
            <id value="mediaChallengeHoldTimesStep3"/>
            <instantiatesReference>
               <reference value="ObservationDefinition/MediaHoldTime"/>
            </instantiatesReference>
            <status value="final"/>
            <code>
               <coding>
                  <system value="http://dummy.loinc.org"/>
                  <code value="XXX"/>
                  <display value="Hold Time"/>
               </coding>
               <text value="Hold Time (hr)"/>
            </code>
            <subject>
               <reference value="Procedure/procedure-run-3"/>
            </subject>
            <valueQuantity>
               <value value="1.75"/>
               <unit value="hours"/>
            </valueQuantity>
         </Observation>
      </resource>
   </entry>
   <entry>
      <fullUrl value="urn:uuid:44aa47fd-9964-5f97-6495-b2bec7f161e8"/>
      <resource>
         <Observation>
            <id value="mediaChallengeBioburden1"/>
            <instantiatesReference>
               <reference value="ObservationDefinition/MediaBioburden"/>
            </instantiatesReference>
            <status value="final"/>
            <code>
               <coding>
                  <system value="http://dummy.loinc.org"/>
                  <code value="XXX"/>
                  <display value="Bioburden (CFU/ 100 mL)"/>
               </coding>
            </code>
            <subject>
               <reference value="Procedure/procedure-run-1"/>
            </subject>
            <component>
               <code>
                  <coding>
                     <system value="http://dummy.loinc.org"/>
                     <code value="XXX"/>
                     <display value="Bioburden - Beginning"/>
                  </coding>
               </code>
               <valueQuantity>
                  <value value="8.0"/>
                  <unit value="CFU/100 mL"/>
                  <!-- todo UCUM -->
               </valueQuantity>
            </component>
            <component>
               <code>
                  <coding>
                     <system value="http://dummy.loinc.org"/>
                     <code value="XXX"/>
                     <display value="Bioburden - End"/>
                  </coding>
               </code>
               <valueQuantity>
                  <value value="9.0"/>
                  <unit value="CFU/100 mL"/>
                  <!-- todo UCUM -->
               </valueQuantity>
            </component>
         </Observation>
      </resource>
   </entry>
   <entry>
      <fullUrl value="urn:uuid:44aa47fd-8964-5f98-6495-b2bec7f161e8"/>
      <resource>
         <Observation>
            <id value="mediaChallengeBioburden2"/>
            <instantiatesReference>
               <reference value="ObservationDefinition/MediaBioburden"/>
            </instantiatesReference>
            <status value="final"/>
            <code>
               <coding>
                  <system value="http://dummy.loinc.org"/>
                  <code value="XXX"/>
                  <display value="Bioburden (CFU/ 100 mL)"/>
               </coding>
            </code>
            <subject>
               <reference value="Procedure/procedure-run-2"/>
            </subject>
            <component>
               <code>
                  <coding>
                     <system value="http://dummy.loinc.org"/>
                     <code value="XXX"/>
                     <display value="Bioburden - Beginning"/>
                  </coding>
               </code>
               <valueQuantity>
                  <value value="8.5"/>
                  <unit value="CFU/100 mL"/>
                  <!-- todo UCUM -->
               </valueQuantity>
            </component>
            <component>
               <code>
                  <coding>
                     <system value="http://dummy.loinc.org"/>
                     <code value="XXX"/>
                     <display value="Bioburden - End"/>
                  </coding>
               </code>
               <valueQuantity>
                  <value value="8.6"/>
                  <unit value="CFU/100 mL"/>
                  <!-- todo UCUM -->
               </valueQuantity>
            </component>
         </Observation>
      </resource>
   </entry>
   <entry>
      <fullUrl value="urn:uuid:44aa47fd-8964-5f99-7495-b2bec7f161e8"/>
      <resource>
         <Observation>
            <id value="mediaChallengeBioburden3"/>
            <instantiatesReference>
               <reference value="ObservationDefinition/MediaBioburden"/>
            </instantiatesReference>
            <status value="final"/>
            <code>
               <coding>
                  <system value="http://dummy.loinc.org"/>
                  <code value="XXX"/>
                  <display value="Bioburden (CFU/ 100 mL)"/>
               </coding>
            </code>
            <subject>
               <reference value="Procedure/procedure-run-3"/>
            </subject>
            <component>
               <code>
                  <coding>
                     <system value="http://dummy.loinc.org"/>
                     <code value="XXX"/>
                     <display value="Bioburden - Beginning"/>
                  </coding>
               </code>
               <valueQuantity>
                  <value value="9.5"/>
                  <unit value="CFU/100 mL"/>
                  <!-- todo UCUM -->
               </valueQuantity>
            </component>
            <component>
               <code>
                  <coding>
                     <system value="http://dummy.loinc.org"/>
                     <code value="XXX"/>
                     <display value="Bioburden - End"/>
                  </coding>
               </code>
               <valueQuantity>
                  <value value="10.1"/>
                  <unit value="CFU/100 mL"/>
                  <!-- todproteinConcentration1o UCUM -->
               </valueQuantity>
            </component>
         </Observation>
      </resource>
   </entry>
   <entry>
      <fullUrl value="urn:uuid:54aa47fd-9965-5f97-6495-b2bec8f161e8"/>
      <resource>
         <Observation>
            <id value="proteinConcentrationStats1"/>
            <instantiatesReference>
               <reference value="ObservationDefinition/ProteinConcentrationStats"/>
            </instantiatesReference>
            <status value="final"/>
            <code>
               <coding>
                  <system value="http://dummy.loinc.org"/>
                  <code value="XXX"/>
                  <display value="ProteinConcentration (mg/mL)"/>
               </coding>
            </code>
            <subject>
               <reference value="Medication/medication-actual-batch-1"/>
            </subject>
            <component>
               <code>
                  <coding>
                     <system value="http://dummy.loinc.org"/>
                     <code value="XXX"/>
                     <display value="Protein Concentration - Beginning - Middle - Mean"/>
                  </coding>
               </code>
               <valueQuantity>
                  <value value="8.0"/>
                  <unit value="mg/mL"/>
                  <!-- todo UCUM -->
               </valueQuantity>
            </component>
            <component>
               <code>
                  <coding>
                     <system value="http://dummy.loinc.org"/>
                     <code value="XXX"/>
                     <display value="Protein Concentration - Beginning - End - Mean"/>
                  </coding>
               </code>
               <valueQuantity>
                  <value value="8.05"/>
                  <unit value="mg/mL"/>
                  <!-- todo UCUM -->
               </valueQuantity>
            </component>
            <component>
               <code>
                  <coding>
                     <system value="http://dummy.loinc.org"/>
                     <code value="XXX"/>
                     <display value="Protein Concentration - Middle - End - Mean"/>
                  </coding>
               </code>
               <valueQuantity>
                  <value value="8.10"/>
                  <unit value="mg/mL"/>
                  <!-- todo UCUM -->
               </valueQuantity>
            </component>
            <component>
               <code>
                  <coding>
                     <system value="http://dummy.loinc.org"/>
                     <code value="XXX"/>
                     <display value="Protein Concentration - Beginning - Middle - Lower"/>
                  </coding>
               </code>
               <valueQuantity>
                  <value value="8.15"/>
                  <unit value="mg/mL"/>
                  <!-- todo UCUM -->
               </valueQuantity>
            </component>
            <component>
               <code>
                  <coding>
                     <system value="http://dummy.loinc.org"/>
                     <code value="XXX"/>
                     <display value="Protein Concentration - Beginning - End - Lower"/>
                  </coding>
               </code>
               <valueQuantity>
                  <value value="8.2"/>
                  <unit value="mg/mL"/>
                  <!-- todo UCUM -->
               </valueQuantity>
            </component>
            <component>
               <code>
                  <coding>
                     <system value="http://dummy.loinc.org"/>
                     <code value="XXX"/>
                     <display value="Protein Concentration - Middle - End - Lower"/>
                  </coding>
               </code>
               <valueQuantity>
                  <value value="8.25"/>
                  <unit value="mg/mL"/>
                  <!-- todo UCUM -->
               </valueQuantity>
            </component>
            <component>
               <code>
                  <coding>
                     <system value="http://dummy.loinc.org"/>
                     <code value="XXX"/>
                     <display value="Protein Concentration - Beginning - Middle - Higher"/>
                  </coding>
               </code>
               <valueQuantity>
                  <value value="8.45"/>
                  <unit value="mg/mL"/>
                  <!-- todo UCUM -->
               </valueQuantity>
            </component>
            <component>
               <code>
                  <coding>
                     <system value="http://dummy.loinc.org"/>
                     <code value="XXX"/>
                     <display value="Protein Concentration - Beginning - End - Higher"/>
                  </coding>
               </code>
               <valueQuantity>
                  <value value="8.3"/>
                  <unit value="mg/mL"/>
                  <!-- todo UCUM -->
               </valueQuantity>
            </component>
            <component>
               <code>
                  <coding>
                     <system value="http://dummy.loinc.org"/>
                     <code value="XXX"/>
                     <display value="Protein Concentration - Middle - End - Higher"/>
                  </coding>
               </code>
               <valueQuantity>
                  <value value="8.35"/>
                  <unit value="mg/mL"/>
                  <!-- todo UCUM -->
               </valueQuantity>
            </component>
            <component>
               <code>
                  <coding>
                     <system value="http://dummy.loinc.org"/>
                     <code value="XXX"/>
                     <display value="Protein Concentration - Conclusion"/>
                  </coding>
               </code>
               <valueString value="Pass"/>
            </component>
         </Observation>
      </resource>
   </entry>
   <entry>
      <fullUrl value="urn:uuid:54aa47fd-9964-5f97-6495-b2bec8f161e8"/>
      <resource>
         <Observation>
            <id value="proteinConcentration1"/>
            <instantiatesReference>
               <reference value="ObservationDefinition/ProteinConcentration"/>
            </instantiatesReference>
            <status value="final"/>
            <code>
               <coding>
                  <system value="http://dummy.loinc.org"/>
                  <code value="XXX"/>
                  <display value="ProteinConcentration (mg/mL)"/>
               </coding>
            </code>
            <subject>
               <reference value="Medication/medication-actual-batch-1"/>
            </subject>
            <component>
               <code>
                  <coding>
                     <system value="http://dummy.loinc.org"/>
                     <code value="XXX"/>
                     <display value="Protein Concentration - Beginning - Min"/>
                  </coding>
               </code>
               <valueQuantity>
                  <value value="8.00"/>
                  <unit value="mg/mL"/>
                  <!-- todo UCUM -->
               </valueQuantity>
            </component>
            <component>
               <code>
                  <coding>
                     <system value="http://dummy.loinc.org"/>
                     <code value="XXX"/>
                     <display value="Protein Concentration - Beginning - Max"/>
                  </coding>
               </code>
               <valueQuantity>
                  <value value="8.05"/>
                  <unit value="mg/mL"/>
                  <!-- todo UCUM -->
               </valueQuantity>
            </component>
            <component>
               <code>
                  <coding>
                     <system value="http://dummy.loinc.org"/>
                     <code value="XXX"/>
                     <display value="Protein Concentration - Middle - Min"/>
                  </coding>
               </code>
               <valueQuantity>
                  <value value="8.10"/>
                  <unit value="mg/mL"/>
                  <!-- todo UCUM -->
               </valueQuantity>
            </component>
            <component>
               <code>
                  <coding>
                     <system value="http://dummy.loinc.org"/>
                     <code value="XXX"/>
                     <display value="Protein Concentration - Middle - Max"/>
                  </coding>
               </code>
               <valueQuantity>
                  <value value="8.15"/>
                  <unit value="mg/mL"/>
                  <!-- todo UCUM -->
               </valueQuantity>
            </component>
            <component>
               <code>
                  <coding>
                     <system value="http://dummy.loinc.org"/>
                     <code value="XXX"/>
                     <display value="Protein Concentration - End - Min"/>
                  </coding>
               </code>
               <valueQuantity>
                  <value value="8.2"/>
                  <unit value="mg/mL"/>
                  <!-- todo UCUM -->
               </valueQuantity>
            </component>
            <component>
               <code>
                  <coding>
                     <system value="http://dummy.loinc.org"/>
                     <code value="XXX"/>
                     <display value="Protein Concentration - End - Max"/>
                  </coding>
               </code>
               <valueQuantity>
                  <value value="8.25"/>
                  <unit value="mg/mL"/>
                  <!-- todo UCUM -->
               </valueQuantity>
            </component>
         </Observation>
      </resource>
   </entry>
   <entry>
      <fullUrl value="urn:uuid:54aa47fd-9964-5f97-6495-b2bec8f162e8"/>
      <resource>
         <Observation>
            <id value="polysorbate2"/>
            <instantiatesReference>
               <reference value="ObservationDefinition/Polysorbate80Concentration"/>
            </instantiatesReference>
            <status value="final"/>
            <code>
               <coding>
                  <system value="http://dummy.loinc.org"/>
                  <code value="XXX"/>
                  <display value="Polysorbate 80 concentration (% w/v)"/>
               </coding>
            </code>
            <subject>
               <reference value="Medication/medication-actual-batch-2"/>
            </subject>
            <component>
               <code>
                  <coding>
                     <system value="http://dummy.loinc.org"/>
                     <code value="XXX"/>
                     <display value="Polysorbate 80 concentration - Beginning - Min"/>
                  </coding>
               </code>
               <valueQuantity>
                  <value value="1.0"/>
                  <unit value="% w/v"/>
                  <!-- todo UCUM -->
               </valueQuantity>
            </component>
            <component>
               <code>
                  <coding>
                     <system value="http://dummy.loinc.org"/>
                     <code value="XXX"/>
                     <display value="Polysorbate 80 concentration - Beginning - Max"/>
                  </coding>
               </code>
               <valueQuantity>
                  <value value="1.05"/>
                  <unit value="% w/v"/>
                  <!-- todo UCUM -->
               </valueQuantity>
            </component>
            <component>
               <code>
                  <coding>
                     <system value="http://dummy.loinc.org"/>
                     <code value="XXX"/>
                     <display value="Polysorbate 80 concentration - Middle - Min"/>
                  </coding>
               </code>
               <valueQuantity>
                  <value value="1.10"/>
                  <unit value="% w/v"/>
                  <!-- todo UCUM -->
               </valueQuantity>
            </component>
            <component>
               <code>
                  <coding>
                     <system value="http://dummy.loinc.org"/>
                     <code value="XXX"/>
                     <display value="Polysorbate 80 concentration - Middle - Max"/>
                  </coding>
               </code>
               <valueQuantity>
                  <value value="1.15"/>
                  <unit value="% w/v"/>
                  <!-- todo UCUM -->
               </valueQuantity>
            </component>
            <component>
               <code>
                  <coding>
                     <system value="http://dummy.loinc.org"/>
                     <code value="XXX"/>
                     <display value="Polysorbate 80 concentration - End - Min"/>
                  </coding>
               </code>
               <valueQuantity>
                  <value value="1.2"/>
                  <unit value="% w/v"/>
                  <!-- todo UCUM -->
               </valueQuantity>
            </component>
            <component>
               <code>
                  <coding>
                     <system value="http://dummy.loinc.org"/>
                     <code value="XXX"/>
                     <display value="Polysorbate 80 concentration - End - Max"/>
                  </coding>
               </code>
               <valueQuantity>
                  <value value="1.25"/>
                  <unit value="% w/v"/>
                  <!-- todo UCUM -->
               </valueQuantity>
            </component>
         </Observation>
      </resource>
   </entry>
   <entry>
      <fullUrl value="urn:uuid:54aa47fd-9964-5f97-6495-b2bec7f161e8"/>
      <resource>
         <Observation>
            <id value="growthPromotion1"/>
            <instantiatesReference>
               <reference value="ObservationDefinition/GrowthPromotion"/>
            </instantiatesReference>
            <status value="final"/>
            <code>
               <coding>
                  <system value="http://dummy.loinc.org"/>
                  <code value="XXX"/>
                  <display value="Growth Promotion"/>
               </coding>
            </code>
            <subject>
               <reference value="Procedure/procedure-run-1"/>
            </subject>
            <component>
               <code>
                  <coding>
                     <system value="http://dummy.loinc.org"/>
                     <code value="XXX"/>
                     <display value="Growth Promotion - Beginning"/>
                  </coding>
               </code>
               <valueString value="Pass"/>
            </component>
            <component>
               <code>
                  <coding>
                     <system value="http://dummy.loinc.org"/>
                     <code value="XXX"/>
                     <display value="Growth Promotion - End"/>
                  </coding>
               </code>
               <valueString value="Pass"/>
            </component>
         </Observation>
      </resource>
   </entry>
   <entry>
      <fullUrl value="urn:uuid:64aa47fd-8964-5f98-6495-b2bec7f161e8"/>
      <resource>
         <Observation>
            <id value="growthPromotion2"/>
            <instantiatesReference>
               <reference value="ObservationDefinition/GrowthPromotion"/>
            </instantiatesReference>
            <status value="final"/>
            <code>
               <coding>
                  <system value="http://dummy.loinc.org"/>
                  <code value="XXX"/>
                  <display value="Growth Promotion"/>
               </coding>
            </code>
            <subject>
               <reference value="Procedure/procedure-run-2"/>
            </subject>
            <component>
               <code>
                  <coding>
                     <system value="http://dummy.loinc.org"/>
                     <code value="XXX"/>
                     <display value="Growth Promotion - Beginning"/>
                  </coding>
               </code>
               <valueString value="Pass"/>
            </component>
            <component>
               <code>
                  <coding>
                     <system value="http://dummy.loinc.org"/>
                     <code value="XXX"/>
                     <display value="Growth Promotion - End"/>
                  </coding>
               </code>
               <valueString value="Pass"/>
            </component>
         </Observation>
      </resource>
   </entry>
   <entry>
      <fullUrl value="urn:uuid:74aa47fd-8964-5f99-7495-b2bec7f161e8"/>
      <resource>
         <Observation>
            <id value="growthPromotion3"/>
            <instantiatesReference>
               <reference value="ObservationDefinition/GrowthPromotion"/>
            </instantiatesReference>
            <status value="final"/>
            <code>
               <coding>
                  <system value="http://dummy.loinc.org"/>
                  <code value="XXX"/>
                  <display value="Growth Promotion"/>
               </coding>
            </code>
            <subject>
               <reference value="Procedure/procedure-run-3"/>
            </subject>
            <component>
               <code>
                  <coding>
                     <system value="http://dummy.loinc.org"/>
                     <code value="XXX"/>
                     <display value="Growth Promotion - Beginning"/>
                  </coding>
               </code>
               <valueString value="Pass"/>
            </component>
            <component>
               <code>
                  <coding>
                     <system value="http://dummy.loinc.org"/>
                     <code value="XXX"/>
                     <display value="Growth Promotion - End"/>
                  </coding>
               </code>
               <valueString value="Fail"/>
            </component>
         </Observation>
      </resource>
   </entry>
   <entry>
      <fullUrl value="urn:uuid:44aa47fd-8964-5f96-8495-b2bec7f161a8"/>
      <resource>
         <Procedure>
            <id value="procedure-run-1"/>
            <identifier>
               <value value="Run 1"/>
            </identifier>
            <status value="completed"/>
            <code>
               <coding>
                  <system value="http://dummy.loinc.org"/>
                  <code value="MediaChallengeRun"/>
                  <display value="Media Challenge Run"/>
               </coding>
            </code>
            <subject>
               <extension url="http://hl7.org/fhir/StructureDefinition/alternate-reference">
                  <valueReference>
                     <reference value="MedicinalProductDefinition/medicinalproductdefinition-drug-product-dxpq-ex1"/>
                  </valueReference>
               </extension>
               <!--display value="This a procedure for performing the test, about the product"/-->
            </subject>
         </Procedure>
      </resource>
   </entry>
   <entry>
      <fullUrl value="urn:uuid:44aa47fd-8964-5f96-6495-b2bec7f162a8"/>
      <resource>
         <Procedure>
            <id value="procedure-run-2"/>
            <identifier>
               <value value="Run 2"/>
            </identifier>
            <status value="completed"/>
            <code>
               <coding>
                  <system value="http://dummy.loinc.org"/>
                  <code value="MediaChallengeRun"/>
                  <display value="Media Challenge Run"/>
               </coding>
            </code>
            <subject>
               <extension url="http://hl7.org/fhir/StructureDefinition/alternate-reference">
                  <valueReference>
                     <reference value="MedicinalProductDefinition/medicinalproductdefinition-drug-product-dxpq-ex1"/>
                  </valueReference>
               </extension>
               <!--display value="This a procedure for performing the test, about the product"/-->
            </subject>
         </Procedure>
      </resource>
   </entry>
   <entry>
      <fullUrl value="urn:uuid:44aa47fd-8964-5f96-6495-b2bec7f163a8"/>
      <resource>
         <Procedure>
            <id value="procedure-run-3"/>
            <identifier>
               <value value="Run 3"/>
            </identifier>
            <status value="completed"/>
            <code>
               <coding>
                  <system value="http://dummy.loinc.org"/>
                  <code value="MediaChallengeRun"/>
                  <display value="Media Challenge Run"/>
               </coding>
            </code>
            <subject>
               <extension url="http://hl7.org/fhir/StructureDefinition/alternate-reference">
                  <valueReference>
                     <reference value="MedicinalProductDefinition/medicinalproductdefinition-drug-product-dxpq-ex1"/>
                  </valueReference>
               </extension>
            </subject>
         </Procedure>
      </resource>
   </entry>
   <entry>
      <fullUrl value="urn:uuid:44aa47fd-8964-5f96-6495-c2bec7f163a8"/>
      <resource>
         <Procedure>
            <id value="procedure-lyoph-homo"/>
            <contained>
               <Device>
                  <id value="device-nosubject"/>
                  <definition>
                     <reference>
                        <reference value="#DDLyo1"/>
                     </reference>
                  </definition>
               </Device>
            </contained>
            <contained>
               <DeviceDefinition>
                  <id value="DDLyo1"/>
                  <identifier>
                     <value value="Lyo 1"/>
                  </identifier>
               </DeviceDefinition>
            </contained>
            <extension url="http://hl7.org/fhir/StructureDefinition/workflow-triggeredBy">
               <valueReference>
                  <reference value="ActivityDefinition/LyophilizationAct"/>
               </valueReference>
            </extension>
            <status value="completed"/>
            <code>
               <coding>
                  <system value="http://dummy.loinc.org"/>
                  <code value="LyophilizationHomogeneneity"/>
                  <display value="Lyophilization Homogeneneity"/>
               </coding>
            </code>
            <subject>
               <extension url="http://hl7.org/fhir/StructureDefinition/alternate-reference">
                  <valueReference>
                     <reference value="Medication/medication-actual-batch-1"/>
                  </valueReference>
               </extension>
            </subject>
            <performer>
               <actor>
                  <reference value="#device-nosubject"/>
                  <display value="Lyo 1"/>
               </actor>
            </performer>
         </Procedure>
      </resource>
   </entry>
   <entry>
      <fullUrl value="urn:uuid:44aa47fd-8964-5f96-6495-b2bec7f161e7"/>
      <resource>
         <Observation>
            <id value="postFiltrationFilterIntegrity1"/>
            <instantiatesReference>
               <reference value="ObservationDefinition/PostFiltrationFilterIntegrity"/>
            </instantiatesReference>
            <status value="final"/>
            <code>
               <coding>
                  <system value="http://dummy.loinc.org"/>
                  <code value="XXX"/>
                  <display value="Post-filtration Filter Integrity (psig)"/>
               </coding>
               <text value="Post-filtration Filter Integrity (psig)"/>
            </code>
            <subject>
               <reference value="Medication/medication-actual-batch-1"/>
            </subject>
            <valueQuantity>
               <value value="280"/>
               <unit value="mOsm/kg"/>
            </valueQuantity>
            <component>
               <code>
                  <coding>
                     <system value="http://dummy.loinc.org"/>
                     <code value="test-success"/>
                     <display value="Test Success"/>
                  </coding>
               </code>
               <valueCodeableConcept>
                  <text value="Pass"/>
                  <!-- consider a boolean -->
               </valueCodeableConcept>
            </component>
         </Observation>
      </resource>
   </entry>
   <entry>
      <fullUrl value="urn:uuid:44aa47fd-8964-4f96-6495-b2bec7f161e7"/>
      <resource>
         <Observation>
            <id value="osmolality1"/>
            <instantiatesReference>
               <reference value="ObservationDefinition/Osmolality"/>
            </instantiatesReference>
            <status value="final"/>
            <code>
               <coding>
                  <system value="http://dummy.loinc.org"/>
                  <code value="XXX"/>
                  <display value="osmolality"/>
               </coding>
               <text value="osmolality"/>
            </code>
            <subject>
               <reference value="Medication/medication-actual-batch-1"/>
            </subject>
            <valueQuantity>
               <value value="280"/>
               <unit value="mOsm/kg"/>
            </valueQuantity>
         </Observation>
      </resource>
   </entry>
   <entry>
      <fullUrl value="urn:uuid:54aa47fd-8964-4f96-6495-b2bec7f162e7"/>
      <resource>
         <Observation>
            <id value="osmolality2"/>
            <instantiatesReference>
               <reference value="ObservationDefinition/Osmolality"/>
            </instantiatesReference>
            <status value="final"/>
            <code>
               <coding>
                  <system value="http://dummy.loinc.org"/>
                  <code value="XXX"/>
                  <display value="osmolality"/>
               </coding>
               <text value="osmolality"/>
            </code>
            <subject>
               <reference value="Medication/medication-actual-batch-2"/>
            </subject>
            <valueQuantity>
               <value value="285"/>
               <unit value="mOsm/kg"/>
            </valueQuantity>
         </Observation>
      </resource>
   </entry>
   <entry>
      <fullUrl value="urn:uuid:54aa48fd-8964-4f96-6495-b2bec7f163e7"/>
      <resource>
         <Observation>
            <id value="osmolality3"/>
            <instantiatesReference>
               <reference value="ObservationDefinition/Osmolality"/>
            </instantiatesReference>
            <status value="final"/>
            <code>
               <coding>
                  <system value="http://dummy.loinc.org"/>
                  <code value="XXX"/>
                  <display value="osmolality"/>
               </coding>
               <text value="osmolality"/>
            </code>
            <subject>
               <reference value="Medication/medication-actual-batch-3"/>
            </subject>
            <valueQuantity>
               <value value="290"/>
               <unit value="mOsm/kg"/>
            </valueQuantity>
         </Observation>
      </resource>
   </entry>
   <entry>
      <fullUrl value="urn:uuid:44ba47fd-8964-4f96-6495-b2bec7f161e8"/>
      <resource>
         <Observation>
            <id value="residualMoisture1"/>
            <instantiatesReference>
               <reference value="ObservationDefinition/ResidualMoisture"/>
            </instantiatesReference>
            <status value="final"/>
            <code>
               <coding>
                  <system value="http://dummy.loinc.org"/>
                  <code value="XXX"/>
                  <display value="Residual Moisture"/>
               </coding>
               <text value="Residual Moisture (%)"/>
            </code>
            <subject>
               <reference value="Medication/medication-actual-batch-1"/>
            </subject>
            <component>
               <code>
                  <coding>
                     <system value="http://dummy.loinc.org"/>
                     <code value="XXX"/>
                     <display value="Residual Moisture - Min"/>
                  </coding>
               </code>
               <valueQuantity>
                  <value value="3.1"/>
                  <unit value="%"/>
               </valueQuantity>
            </component>
            <component>
               <code>
                  <coding>
                     <system value="http://dummy.loinc.org"/>
                     <code value="XXX"/>
                     <display value="Residual Moisture - Max"/>
                  </coding>
               </code>
               <valueQuantity>
                  <value value="3.2"/>
                  <unit value="%"/>
               </valueQuantity>
            </component>
            <component>
               <code>
                  <coding>
                     <system value="http://dummy.loinc.org"/>
                     <code value="SAMP"/>
                     <display value="No. of Samples"/>
                  </coding>
               </code>
               <valueInteger value="2"/>
            </component>
         </Observation>
      </resource>
   </entry>
   <entry>
      <fullUrl value="urn:uuid:44ba47fd-9964-4f96-6495-b2bec7f161e8"/>
      <resource>
         <Observation>
            <id value="residualMoisture2"/>
            <instantiatesReference>
               <reference value="ObservationDefinition/ResidualMoisture"/>
            </instantiatesReference>
            <status value="final"/>
            <code>
               <coding>
                  <system value="http://dummy.loinc.org"/>
                  <code value="XXX"/>
                  <display value="Residual Moisture"/>
               </coding>
               <text value="Residual Moisture (%)"/>
            </code>
            <subject>
               <reference value="Medication/medication-actual-batch-2"/>
            </subject>
            <valueQuantity>
               <value value="4.2"/>
               <unit value="%"/>
            </valueQuantity>
            <component>
               <code>
                  <coding>
                     <system value="http://dummy.loinc.org"/>
                     <code value="SAMP"/>
                     <display value="No. of Samples"/>
                  </coding>
               </code>
               <valueInteger value="3"/>
            </component>
         </Observation>
      </resource>
   </entry>
   <entry>
      <fullUrl value="urn:uuid:44ba47fd-9964-4f96-6496-b2bec7f161e8"/>
      <resource>
         <Observation>
            <id value="residualMoisture3"/>
            <instantiatesReference>
               <reference value="ObservationDefinition/ResidualMoisture"/>
            </instantiatesReference>
            <status value="final"/>
            <code>
               <coding>
                  <system value="http://dummy.loinc.org"/>
                  <code value="XXX"/>
                  <display value="Residual Moisture"/>
               </coding>
               <text value="Residual Moisture (%)"/>
            </code>
            <subject>
               <reference value="Medication/medication-actual-batch-3"/>
            </subject>
            <valueQuantity>
               <value value="4.4"/>
               <unit value="%"/>
            </valueQuantity>
            <component>
               <code>
                  <coding>
                     <system value="http://dummy.loinc.org"/>
                     <code value="SAMP"/>
                     <display value="No. of Samples"/>
                  </coding>
               </code>
               <valueInteger value="3"/>
            </component>
         </Observation>
      </resource>
   </entry>
   <entry>
      <fullUrl value="urn:uuid:44ba47fd-8964-4f96-6495-b2bec7f161e7"/>
      <resource>
         <Observation>
            <id value="SE-UHPLCMainPeak1"/>
            <instantiatesReference>
               <reference value="ObservationDefinition/SE-UHPLCMainPeak"/>
            </instantiatesReference>
            <status value="final"/>
            <code>
               <coding>
                  <system value="http://dummy.loinc.org"/>
                  <code value="XXX"/>
                  <display value="SE-UHPLCMainPeak"/>
               </coding>
               <text value="SE-UHPLC Main Peak (%)"/>
            </code>
            <subject>
               <reference value="Medication/medication-actual-batch-1"/>
            </subject>
            <component>
               <code>
                  <coding>
                     <system value="http://dummy.loinc.org"/>
                     <code value="XXX"/>
                     <display value="SE-UHPLC Main Peak - Beginning"/>
                  </coding>
               </code>
               <valueQuantity>
                  <value value="8.0"/>
                  <unit value="%"/>
               </valueQuantity>
            </component>
            <component>
               <code>
                  <coding>
                     <system value="http://dummy.loinc.org"/>
                     <code value="XXX"/>
                     <display value="SE-UHPLC Main Peak - End"/>
                  </coding>
               </code>
               <valueQuantity>
                  <value value="8.5"/>
                  <unit value="%"/>
               </valueQuantity>
            </component>
         </Observation>
      </resource>
   </entry>
   <entry>
      <fullUrl value="urn:uuid:54ca47fd-8964-4f96-6495-b2bec7f162e7"/>
      <resource>
         <Observation>
            <id value="SE-UHPLCMainPeak2"/>
            <instantiatesReference>
               <reference value="ObservationDefinition/SE-UHPLCMainPeak"/>
            </instantiatesReference>
            <status value="final"/>
            <code>
               <coding>
                  <system value="http://dummy.loinc.org"/>
                  <code value="XXX"/>
                  <display value="SE-UHPLCMainPeak"/>
               </coding>
               <text value="SE-UHPLC Main Peak (%)"/>
            </code>
            <subject>
               <reference value="Medication/medication-actual-batch-2"/>
            </subject>
            <component>
               <code>
                  <coding>
                     <system value="http://dummy.loinc.org"/>
                     <code value="XXX"/>
                     <display value="SE-UHPLC Main Peak - Beginning"/>
                  </coding>
               </code>
               <valueQuantity>
                  <value value="9.0"/>
                  <unit value="%"/>
               </valueQuantity>
            </component>
            <component>
               <code>
                  <coding>
                     <system value="http://dummy.loinc.org"/>
                     <code value="XXX"/>
                     <display value="SE-UHPLC Main Peak - End"/>
                  </coding>
               </code>
               <valueQuantity>
                  <value value="9.5"/>
                  <unit value="%"/>
               </valueQuantity>
            </component>
         </Observation>
      </resource>
   </entry>
   <entry>
      <fullUrl value="urn:uuid:54da48fd-8964-4f96-6495-b2bec7f163e7"/>
      <resource>
         <Observation>
            <id value="SE-UHPLCMainPeak3"/>
            <instantiatesReference>
               <reference value="ObservationDefinition/SE-UHPLCMainPeak"/>
            </instantiatesReference>
            <status value="final"/>
            <code>
               <coding>
                  <system value="http://dummy.loinc.org"/>
                  <code value="XXX"/>
                  <display value="SE-UHPLCMainPeak"/>
               </coding>
               <text value="SE-UHPLC Main Peak (%)"/>
            </code>
            <subject>
               <reference value="Medication/medication-actual-batch-3"/>
            </subject>
            <component>
               <code>
                  <coding>
                     <system value="http://dummy.loinc.org"/>
                     <code value="XXX"/>
                     <display value="SE-UHPLC Main Peak - Beginning"/>
                  </coding>
               </code>
               <valueQuantity>
                  <value value="10.0"/>
                  <unit value="%"/>
               </valueQuantity>
            </component>
            <component>
               <code>
                  <coding>
                     <system value="http://dummy.loinc.org"/>
                     <code value="XXX"/>
                     <display value="SE-UHPLC Main Peak - End"/>
                  </coding>
               </code>
               <valueQuantity>
                  <value value="10.5"/>
                  <unit value="%"/>
               </valueQuantity>
            </component>
         </Observation>
      </resource>
   </entry>
   <entry>
      <fullUrl value="urn:uuid:54ba47fd-8964-4f96-6495-b2bec7f161e7"/>
      <resource>
         <Observation>
            <id value="SE-UHPLCMainPeakLyoph1"/>
            <instantiatesReference>
               <reference value="ObservationDefinition/SE-UHPLCMainPeakLyoph"/>
            </instantiatesReference>
            <status value="final"/>
            <code>
               <coding>
                  <system value="http://dummy.loinc.org"/>
                  <code value="XXX"/>
                  <display value="SE-UHPLCMainPeak"/>
               </coding>
               <text value="SE-UHPLC Main Peak (%)"/>
            </code>
            <subject>
               <reference value="Medication/medication-actual-batch-1"/>
            </subject>
            <valueQuantity>
               <value value="91"/>
               <unit value="%"/>
            </valueQuantity>
            <!--component> these are now done in another non-batch specific obs -->
         </Observation>
      </resource>
   </entry>
   <entry>
      <fullUrl value="urn:uuid:54ba47fd-8964-4f96-6495-b2bec7f161e8"/>
      <resource>
         <Observation>
            <id value="SE-UHPLCMainPeakLyoph2"/>
            <instantiatesReference>
               <reference value="ObservationDefinition/SE-UHPLCMainPeakLyoph"/>
            </instantiatesReference>
            <status value="final"/>
            <code>
               <coding>
                  <system value="http://dummy.loinc.org"/>
                  <code value="XXX"/>
                  <display value="SE-UHPLCMainPeak"/>
               </coding>
               <text value="SE-UHPLC Main Peak (%)"/>
            </code>
            <subject>
               <reference value="Medication/medication-actual-batch-2"/>
            </subject>
            <valueQuantity>
               <value value="89"/>
               <unit value="%"/>
            </valueQuantity>
            <!--component> these are now done in another non-batch specific obs -->
         </Observation>
      </resource>
   </entry>
   <entry>
      <fullUrl value="urn:uuid:54ba47fd-8964-4f96-6495-b2bec7f161e9"/>
      <resource>
         <Observation>
            <id value="SE-UHPLCMainPeakLyoph3"/>
            <instantiatesReference>
               <reference value="ObservationDefinition/SE-UHPLCMainPeakLyoph"/>
            </instantiatesReference>
            <status value="final"/>
            <code>
               <coding>
                  <system value="http://dummy.loinc.org"/>
                  <code value="XXX"/>
                  <display value="SE-UHPLCMainPeak"/>
               </coding>
               <text value="SE-UHPLC Main Peak (%)"/>
            </code>
            <subject>
               <reference value="Medication/medication-actual-batch-3"/>
            </subject>
            <valueQuantity>
               <value value="92"/>
               <unit value="%"/>
            </valueQuantity>
            <!--component> these are now done in another non-batch specific obs -->
         </Observation>
      </resource>
   </entry>
   <entry>
      <fullUrl value="urn:uuid:54ba48fd-8964-4f96-6495-b2bec7f161e7"/>
      <resource>
         <Observation>
            <id value="SE-UHPLCMainPeakLyophConclusionObs"/>
            <instantiatesReference>
               <reference value="ObservationDefinition/SE-UHPLCMainPeakLyoph"/>
               <!--reference value="ObservationDefinition/SE-UHPLCMainPeakLyophConclusion"/-->
               <!-- not using a separate one, % and conclusion are in one definition -->
            </instantiatesReference>
            <status value="final"/>
            <code>
               <coding>
                  <system value="http://dummy.loinc.org"/>
                  <code value="XXX"/>
                  <display value="SE-UHPLCMainPeak"/>
               </coding>
               <text value="SE-UHPLC Main Peak (%)"/>
            </code>
            <!-- note no value here, because the code us the %. But this obs is really about the conclusion -->
            <subject> <!-- not one specific batch -->
               <reference value="MedicinalProductDefinition/medicinalproductdefinition-drug-product-dxpq-ex1"/>
            </subject>
            <component>
               <code>
                  <coding>
                     <system value="http://dummy.loinc.org"/>
                     <code value="SAMP"/>
                     <display value="Number of Samples"/>
                  </coding>
               </code>
               <valueInteger value="12"/>
            </component>
            <component>
               <code>
                  <coding>
                     <system value="http://dummy.loinc.org"/>
                     <code value="XXX"/>
                     <display value="SE-UHPLCMainPeak - Conclusion"/>
                  </coding>
                  <text value="SE-UHPLC Main Peak Conclusion"/>
               </code>
               <valueString value="Pass"/>
            </component>
         </Observation>
      </resource>
   </entry>
   <entry>
      <fullUrl value="urn:uuid:54bb47fd-8964-4f96-6495-b2bec7f161e7"/>
      <resource>
         <Observation>
            <id value="SE-UHPLCHMWLyoph1"/>
            <instantiatesReference>
               <reference value="ObservationDefinition/SE-UHPLCHMWLyoph"/>
            </instantiatesReference>
            <status value="final"/>
            <code>
               <coding>
                  <system value="http://dummy.loinc.org"/>
                  <code value="XXX"/>
                  <display value="SE-UHPLCHMW"/>
               </coding>
               <text value="SE-UHPLC HMW (%)"/>
            </code>
            <subject>
               <reference value="Medication/medication-actual-batch-1"/>
            </subject>
            <valueQuantity>
               <value value="88"/>
               <unit value="%"/>
            </valueQuantity>
            <!--component> these are now done in another non-batch specific obs -->
         </Observation>
      </resource>
   </entry>
   <entry>
      <fullUrl value="urn:uuid:54ba47fd-9964-4f96-6495-b2bec7f161e8"/>
      <resource>
         <Observation>
            <id value="SE-UHPLCHMWLyoph2"/>
            <instantiatesReference>
               <reference value="ObservationDefinition/SE-UHPLCHMWLyoph"/>
            </instantiatesReference>
            <status value="final"/>
            <code>
               <coding>
                  <system value="http://dummy.loinc.org"/>
                  <code value="XXX"/>
                  <display value="SE-UHPLCHMW"/>
               </coding>
               <text value="SE-UHPLC HMW (%)"/>
            </code>
            <subject>
               <reference value="Medication/medication-actual-batch-2"/>
            </subject>
            <valueQuantity>
               <value value="93"/>
               <unit value="%"/>
            </valueQuantity>
            <!--component> these are now done in another non-batch specific obs -->
         </Observation>
      </resource>
   </entry>
   <entry>
      <fullUrl value="urn:uuid:54ba47fe-8964-4f96-6495-b2bec7f161e9"/>
      <resource>
         <Observation>
            <id value="SE-UHPLCHMWLyoph3"/>
            <instantiatesReference>
               <reference value="ObservationDefinition/SE-UHPLCHMWLyoph"/>
            </instantiatesReference>
            <status value="final"/>
            <code>
               <coding>
                  <system value="http://dummy.loinc.org"/>
                  <code value="XXX"/>
                  <display value="SE-UHPLCHMW"/>
               </coding>
               <text value="SE-UHPLC HMW (%)"/>
            </code>
            <subject>
               <reference value="Medication/medication-actual-batch-3"/>
            </subject>
            <valueQuantity>
               <value value="99"/>
               <unit value="%"/>
            </valueQuantity>
            <!--component> these are now done in another non-batch specific obs -->
         </Observation>
      </resource>
   </entry>
   <entry>
      <fullUrl value="urn:uuid:64ba48fd-8964-4f96-6495-b2bec7f161e7"/>
      <resource>
         <Observation>
            <id value="SE-UHPLCHMWLyophConclusionObs"/>
            <instantiatesReference>
               <reference value="ObservationDefinition/SE-UHPLCHMWLyoph"/>
            </instantiatesReference>
            <status value="final"/>
            <code>
               <coding>
                  <system value="http://dummy.loinc.org"/>
                  <code value="XXX"/>
                  <display value="SE-UHPLCHMW"/>
               </coding>
               <text value="SE-UHPLC HMW (%)"/>
            </code>
            <!-- note no value here, because the code us the %. But this obs is really about the conclusion -->
            <subject> <!-- not one specific batch -->
               <reference value="MedicinalProductDefinition/medicinalproductdefinition-drug-product-dxpq-ex1"/>
            </subject>
            <component>
               <code>
                  <coding>
                     <system value="http://dummy.loinc.org"/>
                     <code value="SAMP"/>
                     <display value="Number of Samples"/>
                  </coding>
               </code>
               <valueInteger value="9"/>
            </component>
            <component>
               <code>
                  <coding>
                     <system value="http://dummy.loinc.org"/>
                     <code value="XXX"/>
                     <display value="SE-UHPLCHMWPeak - Conclusion"/>
                  </coding>
                  <text value="SE-UHPLC HMW Conclusion"/>
               </code>
               <valueString value="Fail"/>
            </component>
         </Observation>
      </resource>
   </entry>
   <entry>
      <fullUrl value="urn:uuid:44ba47fd-8964-4f97-6495-b2bec7f161e7"/>
      <resource>
         <Observation>
            <id value="SE-UHPLCHMW1"/>
            <instantiatesReference>
               <reference value="ObservationDefinition/SE-UHPLCHMW"/>
            </instantiatesReference>
            <status value="final"/>
            <code>
               <coding>
                  <system value="http://dummy.loinc.org"/>
                  <code value="XXX"/>
                  <display value="SE-UHPLCHMW"/>
               </coding>
               <text value="SE-UHPLC HMW (%)"/>
            </code>
            <subject>
               <reference value="Medication/medication-actual-batch-1"/>
            </subject>
            <component>
               <code>
                  <coding>
                     <system value="http://dummy.loinc.org"/>
                     <code value="XXX"/>
                     <display value="SE-UHPLCHMW - Beginning"/>
                  </coding>
               </code>
               <valueQuantity>
                  <value value="7.0"/>
                  <unit value="%"/>
               </valueQuantity>
            </component>
            <component>
               <code>
                  <coding>
                     <system value="http://dummy.loinc.org"/>
                     <code value="XXX"/>
                     <display value="SE-UHPLCHMW - End"/>
                  </coding>
               </code>
               <valueQuantity>
                  <value value="7.5"/>
                  <unit value="%"/>
               </valueQuantity>
            </component>
         </Observation>
      </resource>
   </entry>
   <entry>
      <fullUrl value="urn:uuid:54ca47fd-8964-4f98-6495-b2bec7f162e7"/>
      <resource>
         <Observation>
            <id value="SE-UHPLCHMW2"/>
            <instantiatesReference>
               <reference value="ObservationDefinition/SE-UHPLCHMW"/>
            </instantiatesReference>
            <status value="final"/>
            <code>
               <coding>
                  <system value="http://dummy.loinc.org"/>
                  <code value="XXX"/>
                  <display value="SE-UHPLCHMW"/>
               </coding>
               <text value="SE-UHPLC HMW (%)"/>
            </code>
            <subject>
               <reference value="Medication/medication-actual-batch-2"/>
            </subject>
            <component>
               <code>
                  <coding>
                     <system value="http://dummy.loinc.org"/>
                     <code value="XXX"/>
                     <display value="SE-UHPLCHMW - Beginning"/>
                  </coding>
               </code>
               <valueQuantity>
                  <value value="8.0"/>
                  <unit value="%"/>
               </valueQuantity>
            </component>
            <component>
               <code>
                  <coding>
                     <system value="http://dummy.loinc.org"/>
                     <code value="XXX"/>
                     <display value="SE-UHPLCHMW - End"/>
                  </coding>
               </code>
               <valueQuantity>
                  <value value="8.5"/>
                  <unit value="%"/>
               </valueQuantity>
            </component>
         </Observation>
      </resource>
   </entry>
   <entry>
      <fullUrl value="urn:uuid:54da48fd-8964-4f99-6495-b2bec7f163e7"/>
      <resource>
         <Observation>
            <id value="SE-UHPLCHMW3"/>
            <instantiatesReference>
               <reference value="ObservationDefinition/SE-UHPLCHMW"/>
            </instantiatesReference>
            <status value="final"/>
            <code>
               <coding>
                  <system value="http://dummy.loinc.org"/>
                  <code value="XXX"/>
                  <display value="SE-UHPLCHMW"/>
               </coding>
               <text value="SE-UHPLC Main Peak (%)"/>
            </code>
            <subject>
               <reference value="Medication/medication-actual-batch-3"/>
            </subject>
            <component>
               <code>
                  <coding>
                     <system value="http://dummy.loinc.org"/>
                     <code value="XXX"/>
                     <display value="SE-UHPLCHMW - Beginning"/>
                  </coding>
               </code>
               <valueQuantity>
                  <value value="9.0"/>
                  <unit value="%"/>
               </valueQuantity>
            </component>
            <component>
               <code>
                  <coding>
                     <system value="http://dummy.loinc.org"/>
                     <code value="XXX"/>
                     <display value="SE-UHPLCHMW - End"/>
                  </coding>
               </code>
               <valueQuantity>
                  <value value="9.5"/>
                  <unit value="%"/>
               </valueQuantity>
            </component>
         </Observation>
      </resource>
   </entry>
   <entry>
      <fullUrl value="urn:uuid:44ba47fd-8964-4f98-6495-b2bec7f161e7"/>
      <resource>
         <Observation>
            <id value="protein1-2"/>
            <instantiatesReference>
               <reference value="ObservationDefinition/Protein"/>
            </instantiatesReference>
            <status value="final"/>
            <code>
               <coding>
                  <system value="http://dummy.loinc.org"/>
                  <code value="XXX"/>
                  <display value="Protein Concentration"/>
               </coding>
               <text value="Protein Concentration (mg/ml)"/>
            </code>
            <subject>
               <reference value="Medication/medication-actual-batch-1"/>
            </subject>
            <specimen>
               <identifier>
                  <value value="2"/>
               </identifier>
            </specimen>
            <component>
               <code>
                  <coding>
                     <system value="http://dummy.loinc.org"/>
                     <code value="XXX"/>
                     <display value="Protein Concentration"/>
                     <!-- vial 1 -->
                  </coding>
               </code>
               <valueQuantity>
                  <value value="7.0"/>
                  <unit value="mg/ml"/>
               </valueQuantity>
            </component>
         </Observation>
      </resource>
   </entry>
   <entry>
      <fullUrl value="urn:uuid:54ba47fd-8964-4f98-6495-b2bec7f162e7"/>
      <resource>
         <Observation>
            <id value="protein1-4"/>
            <instantiatesReference>
               <reference value="ObservationDefinition/Protein"/>
            </instantiatesReference>
            <status value="final"/>
            <code>
               <coding>
                  <system value="http://dummy.loinc.org"/>
                  <code value="XXX"/>
                  <display value="Protein Concentration"/>
               </coding>
               <text value="Protein Concentration (mg/ml)"/>
            </code>
            <subject>
               <reference value="Medication/medication-actual-batch-1"/>
            </subject>
            <specimen>
               <identifier>
                  <value value="4"/>
               </identifier>
            </specimen>
            <component>
               <code>
                  <coding>
                     <system value="http://dummy.loinc.org"/>
                     <code value="XXX"/>
                     <display value="Protein Concentration"/>
                     <!-- vial 1 -->
                  </coding>
               </code>
               <valueQuantity>
                  <value value="7.2"/>
                  <unit value="mg/ml"/>
               </valueQuantity>
            </component>
         </Observation>
      </resource>
   </entry>
   <entry>
      <fullUrl value="urn:uuid:64ba47fd-8964-4f98-6495-b2bec7f162e7"/>
      <resource>
         <Observation>
            <id value="protein1-6"/>
            <instantiatesReference>
               <reference value="ObservationDefinition/Protein"/>
            </instantiatesReference>
            <status value="final"/>
            <code>
               <coding>
                  <system value="http://dummy.loinc.org"/>
                  <code value="XXX"/>
                  <display value="Protein Concentration"/>
               </coding>
               <text value="Protein Concentration (mg/ml)"/>
            </code>
            <subject>
               <reference value="Medication/medication-actual-batch-1"/>
            </subject>
            <specimen>
               <identifier>
                  <value value="6"/>
               </identifier>
            </specimen>
            <component>
               <code>
                  <coding>
                     <system value="http://dummy.loinc.org"/>
                     <code value="XXX"/>
                     <display value="Protein Concentration"/>
                     <!-- vial 1 -->
                  </coding>
               </code>
               <valueQuantity>
                  <value value="7.3"/>
                  <unit value="mg/ml"/>
               </valueQuantity>
            </component>
         </Observation>
      </resource>
   </entry>
   <entry>
      <fullUrl value="urn:uuid:74ba47fd-8964-4f98-6495-b2bec7f162e7"/>
      <resource>
         <Observation>
            <id value="protein1-8"/>
            <instantiatesReference>
               <reference value="ObservationDefinition/Protein"/>
            </instantiatesReference>
            <status value="final"/>
            <code>
               <coding>
                  <system value="http://dummy.loinc.org"/>
                  <code value="XXX"/>
                  <display value="Protein Concentration"/>
               </coding>
               <text value="Protein Concentration (mg/ml)"/>
            </code>
            <subject>
               <reference value="Medication/medication-actual-batch-1"/>
            </subject>
            <specimen>
               <identifier>
                  <value value="8"/>
               </identifier>
            </specimen>
            <component>
               <code>
                  <coding>
                     <system value="http://dummy.loinc.org"/>
                     <code value="XXX"/>
                     <display value="Protein Concentration"/>
                     <!-- vial 1 -->
                  </coding>
               </code>
               <valueQuantity>
                  <value value="7.5"/>
                  <unit value="mg/ml"/>
               </valueQuantity>
            </component>
         </Observation>
      </resource>
   </entry>
   <entry>
      <fullUrl value="urn:uuid:84ba47fd-8964-4f98-6495-b2bec7f162e7"/>
      <resource>
         <Observation>
            <id value="protein1-10"/>
            <instantiatesReference>
               <reference value="ObservationDefinition/Protein"/>
            </instantiatesReference>
            <status value="final"/>
            <code>
               <coding>
                  <system value="http://dummy.loinc.org"/>
                  <code value="XXX"/>
                  <display value="Protein Concentration"/>
               </coding>
               <text value="Protein Concentration (mg/ml)"/>
            </code>
            <subject>
               <reference value="Medication/medication-actual-batch-1"/>
            </subject>
            <specimen>
               <identifier>
                  <value value="10"/>
               </identifier>
            </specimen>
            <component>
               <code>
                  <coding>
                     <system value="http://dummy.loinc.org"/>
                     <code value="XXX"/>
                     <display value="Protein Concentration"/>
                     <!-- vial 1 -->
                  </coding>
               </code>
               <valueQuantity>
                  <value value="7.7"/>
                  <unit value="mg/ml"/>
               </valueQuantity>
            </component>
         </Observation>
      </resource>
   </entry>
   <entry>
      <fullUrl value="urn:uuid:44ba47fd-8964-4f98-6495-b2bec7f161e8"/>
      <resource>
         <Observation>
            <id value="protein2-2"/>
            <instantiatesReference>
               <reference value="ObservationDefinition/Protein"/>
            </instantiatesReference>
            <status value="final"/>
            <code>
               <coding>
                  <system value="http://dummy.loinc.org"/>
                  <code value="XXX"/>
                  <display value="Protein Concentration"/>
               </coding>
               <text value="Protein Concentration (mg/ml)"/>
            </code>
            <subject>
               <reference value="Medication/medication-actual-batch-2"/>
            </subject>
            <specimen>
               <identifier>
                  <value value="2"/>
               </identifier>
            </specimen>
            <component>
               <code>
                  <coding>
                     <system value="http://dummy.loinc.org"/>
                     <code value="XXX"/>
                     <display value="Protein Concentration"/>
                     <!-- vial 1 -->
                  </coding>
               </code>
               <valueQuantity>
                  <value value="8.0"/>
                  <unit value="mg/ml"/>
               </valueQuantity>
            </component>
         </Observation>
      </resource>
   </entry>
   <entry>
      <fullUrl value="urn:uuid:54ba47fd-8964-4f98-6495-b2bec7f162e9"/>
      <resource>
         <Observation>
            <id value="protein2-4"/>
            <instantiatesReference>
               <reference value="ObservationDefinition/Protein"/>
            </instantiatesReference>
            <status value="final"/>
            <code>
               <coding>
                  <system value="http://dummy.loinc.org"/>
                  <code value="XXX"/>
                  <display value="Protein Concentration"/>
               </coding>
               <text value="Protein Concentration (mg/ml)"/>
            </code>
            <subject>
               <reference value="Medication/medication-actual-batch-2"/>
            </subject>
            <specimen>
               <identifier>
                  <value value="4"/>
               </identifier>
            </specimen>
            <component>
               <code>
                  <coding>
                     <system value="http://dummy.loinc.org"/>
                     <code value="XXX"/>
                     <display value="Protein Concentration"/>
                     <!-- vial 1 -->
                  </coding>
               </code>
               <valueQuantity>
                  <value value="8.2"/>
                  <unit value="mg/ml"/>
               </valueQuantity>
            </component>
         </Observation>
      </resource>
   </entry>
   <entry>
      <fullUrl value="urn:uuid:55aa47fd-9964-5f97-6495-b2bec7f161e8"/>
      <resource>
         <Observation>
            <id value="fillWeight1"/>
            <instantiatesReference>
               <reference value="ObservationDefinition/FillWeight"/>
            </instantiatesReference>
            <status value="final"/>
            <code>
               <coding>
                  <system value="http://dummy.loinc.org"/>
                  <code value="XXX"/>
                  <display value="Fill Weight"/>
               </coding>
            </code>
            <subject>
               <reference value="Medication/medication-actual-batch-1"/>
            </subject>
            <component>
               <code>
                  <coding>
                     <system value="http://dummy.loinc.org"/>
                     <code value="XXX"/>
                     <display value="Fill Weight - Minimum"/>
                  </coding>
               </code>
               <valueQuantity>
                  <value value="9.90"/>
                  <unit value="g"/>
                  <!-- todo UCUM -->
               </valueQuantity>
            </component>
            <component>
               <code>
                  <coding>
                     <system value="http://dummy.loinc.org"/>
                     <code value="XXX"/>
                     <display value="Fill Weight - Maximum"/>
                  </coding>
               </code>
               <valueQuantity>
                  <value value="9.92"/>
                  <unit value="g"/>
                  <!-- todo UCUM -->
               </valueQuantity>
            </component>
            <component>
               <code>
                  <coding>
                     <system value="http://dummy.loinc.org"/>
                     <code value="XXX"/>
                     <display value="Fill Weight - Mean"/>
                  </coding>
               </code>
               <valueQuantity>
                  <value value="9.91"/>
                  <unit value="CFU/100 mL"/>
                  <!-- todo UCUM -->
               </valueQuantity>
            </component>
         </Observation>
      </resource>
   </entry>
   <entry>
      <fullUrl value="urn:uuid:45aa47fd-8964-4f96-6495-b2bec7f160f7"/>
      <resource>
         <Observation>
            <id value="fillingHomogeneityConclusion-nosubject"/>
            <text>
               <status value="generated"/>
               <div xmlns="http://www.w3.org/1999/xhtml">
                  <table>
                     <tr>
                        <th>Quality Attribute</th>
                        <th>Justification</th>
                        <th>Analytical Method</th>
                     </tr>
                     <tr>
                        <td>Quantity</td>
                        <td>Demonstrates that the drug product content is maintained throughout the filling process</td>
                        <td>Protein concentration</td>
                     </tr>
                     <tr>
                        <td>Purity</td>
                        <td>Demonstrates the product quality is not adversely impacted over the duration of the fill through aggregation and / or oxidation</td>
                        <td>SE-UHPLC</td>
                     </tr>
                     <tr>
                        <td>Subvisible Particles</td>
                        <td>Quantitatively determines that subvisible particle content is maintained within specification throughout the filling process</td>
                        <td>Light obscuration</td>
                     </tr>
                  </table>
               </div>
            </text>
            <instantiatesReference>
               <reference value="ObservationDefinition/conclusionHomogeneity"/>
            </instantiatesReference>
            <status value="final"/>
            <code>
               <coding>
                  <system value="http://dummy.loinc.org"/>
                  <code value="CONC"/>
                  <display value="Conclusion"/>
               </coding>
               <text value="Conclusion"/>
            </code>
            <!-- no subject -->
         </Observation>
      </resource>
   </entry>
   <!-- MedicinalProductDefinition - the main resource in any product scenario -->
   <entry>
      <fullUrl value="urn:uuid:a0694a7a-aafa-4cbe-8135-c788a9a4d3d5"/>
      <resource>
            <!-- Section 1.1 - DP Identification -->
         <MedicinalProductDefinition>
            <id value="medicinalproductdefinition-drug-product-dxpq-ex1"/>
            <description value="Textual description of the product"/>
            <combinedPharmaceuticalDoseForm>
               <coding>
                  <system value="https://spor.ema.europa.eu/v1/lists/200000000004"/>
                  <code value="100000073667"/>
                  <display value="Gastro-resistant tablet"/>
               </coding>
            </combinedPharmaceuticalDoseForm>
            <route>
               <coding>
                  <system value="https://spor.ema.europa.eu/v1/lists/100000073345"/>
                  <code value="100000073619"/>
                  <display value="Oral use"/>
               </coding>
            </route>
            <name>
               <productName value="Biocure"/>
               <type>
                  <coding>
                     <system value="http://accumulus.org/fhir/code/productNameType"/>
                     <code value="1234"/>
                     <display value="Proprietary"/>
                  </coding>
               </type>
               <part>
                  <part value="20mg"/>
                  <type>
                     <coding>
                        <system value="http://hl7.org/fhir/medicinal-product-name-part-type"/>
                        <code value="StrengthPart"/>
                        <display value="Strength part"/>
                     </coding>
                  </type>
               </part>
            </name>
         </MedicinalProductDefinition>
      </resource>
   </entry>
   <entry>
      <fullUrl value="urn:uuid:a0694a7a-aafa-4cbe-8135-c788a9a4d3d6"/>
      <resource>
         <Ingredient>
            <id value="productIngredient"/>
            <status value="active"/>
            <for>
               <reference value="MedicinalProductDefinition/medicinalproductdefinition-drug-product-dxpq-ex1"/>
            </for>
            <role>
               <coding>
                  <system value="http://hl7.org/fhir/ingredient-role"/>
                  <code value="100000072072"/>
                  <display value="Active"/>
               </coding>
            </role>
            <substance>
               <code>
                  <reference>
                     <reference value="SubstanceDefinition/substancedefinition-component-substance-dxpq-ex1"/>
                  </reference>
               </code>
            </substance>
         </Ingredient>
      </resource>
   </entry>
   <!--entry>
      <fullUrl value="urn:uuid:6eb94d34-48b4-5bb0-4c05-e183d2ea3e95"/>
        <resource>
        	<SubstanceDefinition>
        		<id value="substance1"/>
        		
        		<manufacturer>
        			<reference value="Organization/substance-manufacturer"/>
        		</manufacturer>
        		<name>
        			<name value="Biocurolol"/>
        		</name>
        		
        	</SubstanceDefinition>
        </resource>
    </entry>
	<entry>
      <fullUrl value="urn:uuid:23dbbd32-2962-9fc3-40b1-67e864f21cd2"/>
		<resource>
			<Organization>
				<id value="substance-manufacturer"/>
				<extension url="http://nprogram.co.uk/fhir/extension/viewer/businessName">
					<valueString value="Section 4.1 - Manufacturer"/>
				</extension>
				<identifier>
					<system value="urn:oid:2.16.840.1.113883.4.82"/> 
					<value value="3003040516"/>
				</identifier>
				<name value="AAA Molybdenum Products, Inc."/>
				<contact>
				    <address>
				        <line value="7233 W 116th Pl"/>
				        <line value="Ste C"/>
				        <city value="Broomfield"/>
				        <state value="Colorado"/>
				        <postalCode value="80020"/>
				        <country value="USA"/>
				    </address>
				</contact>
			</Organization>        
		</resource>
	</entry-->
   <entry>
      <fullUrl value="urn:uuid:57a9af63-315d-1585-a261-0e337b289390"/>
      <resource>
         <SubstanceDefinition>
            <id value="substancedefinition-component-substance-dxpq-ex1"/>
            <meta>
               <profile value="http://hl7.org/fhir/uv/dx-pq/StructureDefinition/SubstanceDefinition-component-substance-dxpq"/>
            </meta>
            <manufacturer>
               <reference value="Organization/organization-dxpq-ex1"/>
            </manufacturer>
            <name>
               <name value="Biocurolol"/>
               <!-- #4 -->
            </name>
         </SubstanceDefinition>
      </resource>
   </entry>
   <entry>
      <fullUrl value="urn:uuid:49d2f0c0-4b28-9271-8aaf-2996a8b9739c"/>
      <resource>
         <Organization>
                <!--id value="substance-manufacturer"/-->
            <id value="organization-dxpq-ex1"/>
            <meta>
               <profile value="http://hl7.org/fhir/uv/dx-pq/StructureDefinition/Organization-dxpq"/>
            </meta>
            <identifier>
                    <!-- FDA establishment identifier -->
               <system value="urn:oid:2.16.840.1.113883.4.82"/>
               <value value="3003040516"/>
            </identifier>
            <name value="AAA Molybdenum Products, Inc."/>
            <contact>
               <address>
                  <line value="7233 W 116th Pl"/>
                  <line value="Ste C"/>
                  <city value="Broomfield"/>
                  <state value="Colorado"/>
                  <postalCode value="80020"/>
                  <country value="USA"/>
               </address>
            </contact>
         </Organization>
      </resource>
   </entry>
   <!-- manufacturing plan -->
   <entry>
      <fullUrl value="urn:uuid:bf6b038b-1334-3dd4-a552-65c169e2265a"/>
      <resource>
         <PlanDefinition>
            <id value="manufacturingProcess-subset-unlinked"/>
            <!-- indicate this is as subset of the resource. In practice it would have it all -->
            <meta>
               <profile value="http://hl7.org/fhir/uv/dx-pq/StructureDefinition/PlanDefinition-mnf-process-dxpq"/>
               <tag>
                  <system value="http://terminology.hl7.org/CodeSystem/v3-ObservationValue"/>
                  <code value="SUBSETTED"/>
               </tag>
            </meta>
            <extension url="http://accumulus.org/fhir/extension/historyOfProcess">
               <valueMarkdown value="This can be text about the history"/>
            </extension>
            <title value="Process 1.0"/>
            <type>
               <coding>
                  <system value="http://terminology.hl7.org/CodeSystem/plan-definition-type"/>
                  <code value="workflow-definition"/>
                  <display value="Workflow Definition"/>
               </coding>
               <coding>
                  <system value="http://accumulus.org/fhir/code/planType"/>
                  <code value="manufacturing-process"/>
                  <display value="Manufacturing Process"/>
               </coding>
            </type>
            <status value="active"/>
            <!-- #83 -->
            <subjectReference>
               <reference value="MedicinalProductDefinition/medicinalproductdefinition-drug-product-dxpq-ex1"/>
            </subjectReference>
            <description value="Narrative description of manufacturing process (5)"/>
            <!-- #85 -->
            <goal id="goal-control-pH">
               <category>
                  <coding>
                     <system value="http://accumulus.org/fhir/code/testCategory"/>
                     <code value="C123456"/>
                     <display value="Physical Property"/>
                  </coding>
               </category>
               <description>
                  <text value="Controls - pH"/>
                  <!-- this is mandatory, even though we don't really want it -->
               </description>
               <priority>
                  <coding>
                     <system value="http://accumulus.org/fhir/code/goalPriority"/>
                     <code value="critical"/>
                     <display value="Critical"/>
                  </coding>
               </priority>
               <target>
                  <measure>
                     <coding>
                        <system value="http://dummy.loinc.org"/>
                        <code value="PH"/>
                        <display value="pH Level"/>
                     </coding>
                     <text value="pH must be in range 6.9 to 7.1"/>
                  </measure>
                  <!--detailString value="can also be a string"-->
                  <detailRange>
                     <low>
                        <value value="6.9"/>
                        <unit value="pH"/>
                     </low>
                     <high>
                        <value value="7.1"/>
                        <unit value="pH"/>
                     </high>
                  </detailRange>
               </target>
            </goal>
            <goal id="goal-control-water-content">
               <category>
                  <coding>
                     <system value="http://accumulus.org/fhir/code/testCategory"/>
                     <code value="C123456"/>
                     <display value="Physical Property"/>
                  </coding>
               </category>
               <description>
                  <text value="Controls - Water Content"/>
                  <!-- this is mandatory, even though we don't really want it -->
               </description>
               <priority>
                  <coding>
                     <system value="http://accumulus.org/fhir/code/goalPriority"/>
                     <code value="critical"/>
                     <display value="Critical"/>
                  </coding>
               </priority>
               <target>
                  <measure>
                     <coding>
                        <system value="http://dummy.loinc.org"/>
                        <code value="WaterContent"/>
                        <display value="Water content"/>
                     </coding>
                     <text value="Under 2%"/>
                  </measure>
                  <!--detailString value="can also be a string"-->
                  <detailRange>
                     <high>
                        <value value="2"/>
                        <unit value="%"/>
                     </high>
                  </detailRange>
               </target>
            </goal>
            <goal id="goal-control-particle-size">
               <category>
                  <coding>
                     <system value="http://accumulus.org/fhir/code/testCategory"/>
                     <code value="C123456"/>
                     <display value="Physical Property"/>
                  </coding>
               </category>
               <description>
                  <text value="Controls - Particle Size"/>
               </description>
               <priority>
                  <coding>
                     <system value="http://accumulus.org/fhir/code/goalPriority"/>
                     <code value="critical"/>
                     <display value="Critical"/>
                  </coding>
               </priority>
               <target>
                  <measure>
                     <coding>
                        <system value="http://dummy.loinc.org"/>
                        <code value="ParticleSize"/>
                        <display value="Particle Size"/>
                     </coding>
                     <text value="Under 200 microns"/>
                  </measure>
                  <!--detailString value="can also be a string"-->
                  <detailRange>
                     <high>
                        <value value="200"/>
                        <unit value="microns"/>
                     </high>
                  </detailRange>
               </target>
            </goal>
            <actor>
               <option>
                  <typeReference>
                     <reference value="DeviceDefinition/mixing-vessel"/>
                  </typeReference>
                  <role>
                     <coding>
                        <system value="http://accumulus.org/fhir/code/equipmentClass"/>
                        <code value="mixing-vessel"/>
                        <display value="Mixing Vessel"/>
                     </coding>
                  </role>
               </option>
            </actor>
            <actor>
               <option>
                  <typeReference>
                     <reference value="DeviceDefinition/receiving-tank"/>
                  </typeReference>
                  <role>
                     <coding>
                        <system value="http://accumulus.org/fhir/code/equipmentClass"/>
                        <code value="receiving-vessel"/>
                        <display value="Receiving Vessel"/>
                     </coding>
                  </role>
               </option>
            </actor>
            <!-- another outer action can be the whole thing, if needed -->
            <!-- removed the main actions for brevity (see manufacturing example) -->
         </PlanDefinition>
      </resource>
   </entry>
   <entry>
      <fullUrl value="urn:uuid:82a39a18-91cf-a29d-76c1-a9e8bad9494d"/>
      <resource>
         <DeviceDefinition>
            <id value="mixing-vessel"/>
            <deviceName>
               <name value="Mixing Vessel"/>
               <type value="registered-name"/>
            </deviceName>
            <classification>
               <type>
                  <coding>
                     <system value="http://accumulus.org/fhir/code/deviceType"/>
                     <code value="mixing-vessel"/>
                     <display value="Mixing Vessel"/>
                  </coding>
               </type>
            </classification>
            <property>
               <type>
                  <coding>
                     <system value="http://accumulus.org/fhir/code/deviceProperty"/>
                     <code value="capacity"/>
                     <display value="Capacity"/>
                     <!-- seems a little different to "maximum capacity -->
                  </coding>
               </type>
               <valueQuantity>
                  <value value="1000"/>
                  <unit value="litres"/>
               </valueQuantity>
            </property>
         </DeviceDefinition>
      </resource>
   </entry>
   <entry>
      <fullUrl value="urn:uuid:82a39a18-91cf-b29d-76c1-a9e8bad9494d"/>
      <resource>
         <DeviceDefinition>
            <id value="receiving-tank"/>
            <deviceName>
               <name value="Receiving Tank"/>
               <type value="registered-name"/>
            </deviceName>
            <classification>
               <type>
                  <coding>
                     <system value="http://accumulus.org/fhir/code/deviceType"/>
                     <code value="receiving-tank"/>
                     <display value="Receiving Tank"/>
                  </coding>
               </type>
            </classification>
            <property>
               <type>
                  <coding>
                     <system value="http://accumulus.org/fhir/code/deviceProperty"/>
                     <code value="capacity"/>
                     <display value="Capacity"/>
                     <!-- seems a little different to "maximum capacity -->
                  </coding>
               </type>
               <valueQuantity>
                  <value value="1200"/>
                  <unit value="litres"/>
               </valueQuantity>
            </property>
         </DeviceDefinition>
      </resource>
   </entry>
   <entry>
      <fullUrl value="urn:uuid:fc078762-81c5-5656-9744-13c7ad1e595b"/>
      <resource>
         <Substance>
                <!--<id value="actual-batch-substance"/>-->
            <id value="substance-dxpq-ex1"/>
            <meta>
               <profile value="http://hl7.org/fhir/uv/dx-pq/StructureDefinition/Substance-dxpq"/>
            </meta>
            <extension url="http://hl7.org/fhir/StructureDefinition/medication-manufacturingBatch">
               <extension url="http://hl7.org/fhir/uv/dx-pq/StructureDefinition/Extension-batch-release-date-dxpq">
                  <valueDateTime value="2019-09-08"/>
                  <!-- #173 -->
               </extension>
               <extension url="http://hl7.org/fhir/uv/dx-pq/StructureDefinition/Extension-batch-retest-date-dxpq">
                  <valueDateTime value="2022-09-08"/>
                  <!-- #221 -->
               </extension>
               <extension url="manufacturingDate">
                  <valueDateTime value="2019-09-07"/>
                  <!-- #159 -->
               </extension>
               <extension url="batchQuantity"> <!-- #157 -->
                  <valueQuantity>
                     <value value="5"/>
                     <unit value="kg"/>
                     <!-- #158 -->
                  </valueQuantity>
               </extension>
               <extension url="http://hl7.org/fhir/uv/dx-pq/StructureDefinition/Extension-actual-yield-dxpq">
                  <valueQuantity>
                     <value value="4.8"/>
                     <unit value="kg"/>
                  </valueQuantity>
               </extension>
               <extension url="batchUtilization"><!-- #161 -->
                  <valueCodeableConcept>
                     <coding>
                        <extension url="http://nprogram.co.uk/fhir/extension/instanceComment">
                           <valueString value="Comment: This has a value set defined in PQ/CMC but no code system"/>
                        </extension>
                        <system value="http://temp.hl7.org/fhir/us/pq-cmc/CodeSystem/pqcmc-batch-utilization-terminology"/>
                        <code value="C133991"/>
                        <display value="Development"/>
                     </coding>
                  </valueCodeableConcept>
               </extension>
               <extension url="assignedManufacturer"> <!-- #160 -->
                  <valueReference>
                     <reference value="Organization/organization-dxpq-ex1"/>
                  </valueReference>
               </extension>
            </extension>
            <identifier>
               <value value="SUB1"/>
            </identifier>
            <instance value="true"/>
            <code>
               <reference>
                  <reference value="SubstanceDefinition/substancedefinition-component-substance-dxpq-ex1"/>
               </reference>
            </code>
         </Substance>
      </resource>
   </entry>
   <entry>
      <fullUrl value="urn:uuid:cb31d747-2338-88d5-342c-8e9c097e4dad"/>
      <resource>
         <Substance>
            <id value="actual-batch-substance-2"/>
            <extension url="http://hl7.org/fhir/StructureDefinition/medication-manufacturingBatch">
               <extension url="http://hl7.org/fhir/uv/dx-pq/StructureDefinition/Extension-batch-release-date-dxpq">
                  <valueDateTime value="2019-09-08"/>
                  <!-- #173 -->
               </extension>
               <extension url="http://hl7.org/fhir/uv/dx-pq/StructureDefinition/Extension-batch-retest-date-dxpq">
                  <valueDateTime value="2022-09-08"/>
                  <!-- #221 -->
               </extension>
               <extension url="manufacturingDate">
                  <valueDateTime value="2019-09-07"/>
                  <!-- #159 -->
               </extension>
               <extension url="batchQuantity"> <!-- #157 -->
                  <valueQuantity>
                     <value value="5"/>
                     <unit value="kg"/>
                     <!-- #158 -->
                  </valueQuantity>
               </extension>
               <extension url="http://hl7.org/fhir/uv/dx-pq/StructureDefinition/Extension-actual-yield-dxpq">
                  <valueQuantity>
                     <value value="4.8"/>
                     <unit value="kg"/>
                  </valueQuantity>
               </extension>
               <extension url="batchUtilization"><!-- #161 -->
                  <valueCodeableConcept>
                     <coding>
                        <extension url="http://nprogram.co.uk/fhir/extension/instanceComment">
                           <valueString value="Comment: This has a value set defined in PQ/CMC but no code system"/>
                        </extension>
                        <system value="http://temp.hl7.org/fhir/us/pq-cmc/CodeSystem/pqcmc-batch-utilization-terminology"/>
                        <code value="C133991"/>
                        <display value="Development"/>
                     </coding>
                  </valueCodeableConcept>
               </extension>
               <extension url="assignedManufacturer"> <!-- #160 -->
                  <valueReference>
                     <reference value="Organization/organization-dxpq-ex1"/>
                  </valueReference>
               </extension>
            </extension>
            <identifier>
               <value value="SUB2"/>
            </identifier>
            <instance value="true"/>
            <code>
               <reference>
                  <reference value="SubstanceDefinition/substancedefinition-component-substance-dxpq-ex1"/>
               </reference>
            </code>
         </Substance>
      </resource>
   </entry>
   <entry>
      <fullUrl value="urn:uuid:1551f97b-6f6d-825e-1fb3-44b0b090808c"/>
      <resource>
         <Substance>
            <id value="actual-batch-substance-3"/>
            <extension url="http://hl7.org/fhir/StructureDefinition/medication-manufacturingBatch">
               <extension url="http://hl7.org/fhir/uv/dx-pq/StructureDefinition/Extension-batch-release-date-dxpq">
                  <valueDateTime value="2019-09-08"/>
                  <!-- #173 -->
               </extension>
               <extension url="http://hl7.org/fhir/uv/dx-pq/StructureDefinition/Extension-batch-retest-date-dxpq">
                  <valueDateTime value="2022-09-08"/>
                  <!-- #221 -->
               </extension>
               <extension url="manufacturingDate">
                  <valueDateTime value="2019-09-07"/>
                  <!-- #159 -->
               </extension>
               <extension url="batchQuantity"> <!-- #157 -->
                  <valueQuantity>
                     <value value="5"/>
                     <unit value="kg"/>
                     <!-- #158 -->
                  </valueQuantity>
               </extension>
               <extension url="http://hl7.org/fhir/uv/dx-pq/StructureDefinition/Extension-actual-yield-dxpq">
                  <valueQuantity>
                     <value value="4.8"/>
                     <unit value="kg"/>
                  </valueQuantity>
               </extension>
               <extension url="batchUtilization"><!-- #161 -->
                  <valueCodeableConcept>
                     <coding>
                        <extension url="http://nprogram.co.uk/fhir/extension/instanceComment">
                           <valueString value="Comment: This has a value set defined in PQ/CMC but no code system"/>
                        </extension>
                        <system value="http://temp.hl7.org/fhir/us/pq-cmc/CodeSystem/pqcmc-batch-utilization-terminology"/>
                        <code value="C133991"/>
                        <display value="Development"/>
                     </coding>
                  </valueCodeableConcept>
               </extension>
               <extension url="assignedManufacturer"> <!-- #160 -->
                  <valueReference>
                     <reference value="Organization/organization-dxpq-ex1"/>
                  </valueReference>
               </extension>
            </extension>
            <identifier>
               <value value="SUB3"/>
               <!-- #155 -->
            </identifier>
            <instance value="true"/>
            <code>
               <reference>
                  <reference value="SubstanceDefinition/substancedefinition-component-substance-dxpq-ex1"/>
               </reference>
            </code>
         </Substance>
      </resource>
   </entry>
</Bundle>
